#******** NO2 Absorption Cross Sections at 273K ******************
#
#Version 1.0
#Date: August 2000
#
#K. Bogumil, J. Orphal, and J. P. Burrows
#University of Bremen - Institute of Environmental Physics
#P. O. Box 33 04 40
#D-28334 Bremen, Germany
#e-mail: Konstanze.Bogumil@iup.physik.uni-bremen.de
#
#1. column title:	wavelength (vacuum)
#1. column unit:		nm
#2. column title:	absorption cross-section 
#2. column unit:		cm2/molec
#
#Wavelength range:	233 - 890 nm
#Spectral Resolution:	0.22 nm below 310.8 nm, 
#	                0.21 nm between 310.8 nm and 402.3 nm, 
#			0.52 nm between 402.3 nm and 598.7 nm, 
#			0.47 nm between 598.7 nm and 777 nm,
#                       0.62 nm between 777 nm and 890 nm (FWHM)
#Number of data points in file:	3576
#
#Experimental:
#
#Light source:   Xenon lamp
#Cell:	        Multiple reflection quartz cell (White optics)
#	        optical pathlength 985 cm
#Temperature:    273K
#Gas mixture:    NO2, N2
#Condition:      Flow measurement
#Total pressure: 100 mbar
#Spectrometer:   SCIAMACHY PFM Satellite Spectrometer 
#		 (Eight channel grating spectrometer)
#
#Note: Spectral Regions are cut and concatenated at 310.8 nm, 402.3 nm, 
#      573 nm, 598.7 nm and 777 nm. The data are scaled to the integrated 
#      absorption cross section using the absorption cross section measured 
#      by Vandaele et al., J. Quant. Spectrosc. Radiat. Transfer 59 
#      (3--5), 171--184 (1998)
#
   233.0807  2.566016E-19
   233.2139  2.299417E-19
   233.3470  2.124074E-19
   233.4800  1.931201E-19
   233.6129  1.704887E-19
   233.7458  1.504957E-19
   233.8786  1.372249E-19
   234.0113  1.266682E-19
   234.1439  1.195120E-19
   234.2765  1.130327E-19
   234.4089  1.079079E-19
   234.5413  1.047678E-19
   234.6736  1.013345E-19
   234.8058  1.024483E-19
   234.9380  1.095003E-19
   235.0700  1.269269E-19
   235.2020  1.488346E-19
   235.3339  1.735138E-19
   235.4657  1.938906E-19
   235.5975  2.028878E-19
   235.7292  1.943816E-19
   235.8607  1.770249E-19
   235.9922  1.556932E-19
   236.1237  1.395213E-19
   236.2550  1.320827E-19
   236.3863  1.355165E-19
   236.5175  1.434889E-19
   236.6486  1.492297E-19
   236.7796  1.489733E-19
   236.9106  1.473184E-19
   237.0415  1.463410E-19
   237.1722  1.500825E-19
   237.3030  1.598750E-19
   237.4336  1.688445E-19
   237.5642  1.753756E-19
   237.6946  1.768214E-19
   237.8250  1.720117E-19
   237.9554  1.603203E-19
   238.0856  1.449628E-19
   238.2158  1.282419E-19
   238.3458  1.116247E-19
   238.4759  9.676439E-20
   238.6058  8.339102E-20
   238.7356  7.289796E-20
   238.8654  6.749867E-20
   238.9951  7.077973E-20
   239.1247  8.565637E-20
   239.2542  1.053495E-19
   239.3837  1.163205E-19
   239.5131  1.135507E-19
   239.6424  1.018429E-19
   239.7716  8.787436E-20
   239.9007  7.453200E-20
   240.0298  6.300631E-20
   240.1588  5.374039E-20
   240.2877  4.665199E-20
   240.4165  4.138426E-20
   240.5453  3.715141E-20
   240.6740  3.318134E-20
   240.8026  2.944220E-20
   240.9311  2.548396E-20
   241.0596  2.208640E-20
   241.1879  1.919900E-20
   241.3162  1.734896E-20
   241.4444  1.675447E-20
   241.5726  1.698185E-20
   241.7006  1.960573E-20
   241.8286  2.659115E-20
   241.9565  4.434736E-20
   242.0844  7.924024E-20
   242.2121  1.221099E-19
   242.3398  1.488442E-19
   242.4674  1.474638E-19
   242.5949  1.273710E-19
   242.7224  1.028215E-19
   242.8497  8.225807E-20
   242.9770  6.894446E-20
   243.1043  6.342962E-20
   243.2314  6.157800E-20
   243.3585  5.783080E-20
   243.4855  5.052274E-20
   243.6124  4.241429E-20
   243.7392  3.497202E-20
   243.8660  2.899837E-20
   243.9927  2.451548E-20
   244.1193  2.114621E-20
   244.2459  1.897043E-20
   244.3723  1.776815E-20
   244.4987  1.807270E-20
   244.6250  2.159314E-20
   244.7513  3.117545E-20
   244.8775  4.242911E-20
   245.0036  4.505176E-20
   245.1296  3.910973E-20
   245.2555  3.104924E-20
   245.3814  2.416680E-20
   245.5072  1.893831E-20
   245.6329  1.507274E-20
   245.7586  1.337229E-20
   245.8842  1.768766E-20
   246.0097  3.183876E-20
   246.1351  3.992461E-20
   246.2605  3.469651E-20
   246.3857  2.697405E-20
   246.5109  2.095293E-20
   246.6361  1.664625E-20
   246.7612  1.344602E-20
   246.8862  1.153972E-20
   247.0111  9.578080E-21
   247.1359  8.578883E-21
   247.2607  7.352136E-21
   247.3854  6.499377E-21
   247.5100  6.035486E-21
   247.6346  5.366728E-21
   247.7591  5.112169E-21
   247.8835  4.883273E-21
   248.0079  4.683720E-21
   248.1321  4.346004E-21
   248.2563  4.285372E-21
   248.3805  4.259821E-21
   248.5045  4.191534E-21
   248.6285  4.339179E-21
   248.7524  4.515897E-21
   248.8763  4.925152E-21
   249.0001  7.041786E-21
   249.1238  2.045737E-20
   249.2474  4.524915E-20
   249.3710  5.350940E-20
   249.4945  4.500560E-20
   249.6179  3.507794E-20
   249.7413  2.710493E-20
   249.8646  2.122439E-20
   249.9878  1.684403E-20
   250.1110  1.445344E-20
   250.2341  1.159485E-20
   250.3571  1.059977E-20
   250.4800  9.462643E-21
   250.6029  8.154673E-21
   250.7257  7.943752E-21
   250.8485  7.400273E-21
   250.9711  6.806571E-21
   251.0937  6.613124E-21
   251.2163  6.291613E-21
   251.3387  5.783024E-21
   251.4612  5.687145E-21
   251.5835  5.642165E-21
   251.7058  5.450815E-21
   251.8280  5.345078E-21
   251.9501  5.420022E-21
   252.0722  5.614140E-21
   252.1942  5.692669E-21
   252.3161  5.598719E-21
   252.4380  5.776711E-21
   252.5598  5.914525E-21
   252.6815  6.061189E-21
   252.8032  6.143032E-21
   252.9248  6.208191E-21
   253.0464  6.381460E-21
   253.1678  6.480777E-21
   253.2893  6.547119E-21
   253.4106  6.517696E-21
   253.5319  6.554841E-21
   253.6531  6.659513E-21
   253.7743  6.816548E-21
   253.8954  6.974316E-21
   254.0164  7.463402E-21
   254.1373  7.657808E-21
   254.2582  7.880397E-21
   254.3791  7.859767E-21
   254.4999  7.739539E-21
   254.6206  7.646930E-21
   254.7412  7.723644E-21
   254.8618  7.664685E-21
   254.9823  7.662374E-21
   255.1028  7.655159E-21
   255.2232  7.800076E-21
   255.3435  8.004346E-21
   255.4638  8.193171E-21
   255.5840  8.408601E-21
   255.7042  8.574430E-21
   255.8242  8.819001E-21
   255.9443  8.878242E-21
   256.0642  8.865503E-21
   256.1841  8.664390E-21
   256.3040  8.552954E-21
   256.4238  8.460740E-21
   256.5435  8.381208E-21
   256.6632  8.207544E-21
   256.7828  8.372696E-21
   256.9023  8.510736E-21
   257.0218  8.434079E-21
   257.1412  8.637785E-21
   257.2606  8.928013E-21
   257.3799  9.191918E-21
   257.4992  9.356450E-21
   257.6183  9.644592E-21
   257.7375  1.010082E-20
   257.8566  1.029860E-20
   257.9756  1.037160E-20
   258.0945  1.055513E-20
   258.2134  1.054481E-20
   258.3323  1.040057E-20
   258.4511  1.043292E-20
   258.5698  1.034939E-20
   258.6885  1.044369E-20
   258.8071  1.076548E-20
   258.9256  1.129312E-20
   259.0441  1.175256E-20
   259.1626  1.221059E-20
   259.2810  1.262792E-20
   259.3993  1.269889E-20
   259.5176  1.281782E-20
   259.6358  1.275046E-20
   259.7540  1.257229E-20
   259.8721  1.249281E-20
   259.9901  1.239846E-20
   260.1082  1.222136E-20
   260.2261  1.206703E-20
   260.3440  1.181361E-20
   260.4618  1.165837E-20
   260.5796  1.175792E-20
   260.6974  1.187589E-20
   260.8150  1.214171E-20
   260.9327  1.243972E-20
   261.0502  1.276298E-20
   261.1678  1.300901E-20
   261.2852  1.334090E-20
   261.4026  1.358090E-20
   261.5200  1.388894E-20
   261.6373  1.395269E-20
   261.7546  1.389531E-20
   261.8718  1.368495E-20
   261.9889  1.364831E-20
   262.1060  1.355441E-20
   262.2231  1.351805E-20
   262.3401  1.377503E-20
   262.4571  1.411756E-20
   262.5740  1.465456E-20
   262.6908  1.517369E-20
   262.8076  1.571407E-20
   262.9244  1.630625E-20
   263.0411  1.678423E-20
   263.1577  1.714869E-20
   263.2743  1.719299E-20
   263.3909  1.718465E-20
   263.5074  1.716560E-20
   263.6238  1.704458E-20
   263.7402  1.713933E-20
   263.8566  1.724541E-20
   263.9729  1.738672E-20
   264.0892  1.748097E-20
   264.2054  1.747866E-20
   264.3216  1.745245E-20
   264.4377  1.752065E-20
   264.5538  1.763564E-20
   264.6698  1.805094E-20
   264.7858  1.836777E-20
   264.9017  1.876571E-20
   265.0176  1.915712E-20
   265.1334  1.941127E-20
   265.2492  1.964829E-20
   265.3650  1.990115E-20
   265.4807  1.992302E-20
   265.5963  1.984101E-20
   265.7120  1.976254E-20
   265.8275  1.963347E-20
   265.9431  1.944278E-20
   266.0585  1.926027E-20
   266.1740  1.902877E-20
   266.2894  1.891672E-20
   266.4047  1.882512E-20
   266.5200  1.882084E-20
   266.6353  1.903627E-20
   266.7505  1.962856E-20
   266.8657  2.001140E-20
   266.9808  2.047089E-20
   267.0959  2.111544E-20
   267.2110  2.147567E-20
   267.3260  2.212292E-20
   267.4409  2.230391E-20
   267.5558  2.222398E-20
   267.6707  2.206791E-20
   267.7856  2.190597E-20
   267.9004  2.185980E-20
   268.0151  2.190276E-20
   268.1298  2.224659E-20
   268.2445  2.271499E-20
   268.3592  2.355360E-20
   268.4738  2.444345E-20
   268.5883  2.528595E-20
   268.7028  2.595495E-20
   268.8173  2.649871E-20
   268.9317  2.720317E-20
   269.0461  2.758359E-20
   269.1605  2.781480E-20
   269.2748  2.790989E-20
   269.3891  2.791626E-20
   269.5034  2.781672E-20
   269.6176  2.751065E-20
   269.7317  2.738270E-20
   269.8459  2.737599E-20
   269.9600  2.734663E-20
   270.0740  2.730723E-20
   270.1880  2.732560E-20
   270.3020  2.746156E-20
   270.4160  2.740147E-20
   270.5299  2.752266E-20
   270.6437  2.751950E-20
   270.7576  2.745423E-20
   270.8714  2.737661E-20
   270.9851  2.749036E-20
   271.0989  2.757981E-20
   271.2126  2.750270E-20
   271.3262  2.747007E-20
   271.4399  2.725278E-20
   271.5535  2.720210E-20
   271.6670  2.731901E-20
   271.7805  2.734409E-20
   271.8940  2.759593E-20
   272.0075  2.792105E-20
   272.1209  2.840241E-20
   272.2343  2.906032E-20
   272.3476  2.977154E-20
   272.4610  3.031198E-20
   272.5743  3.086526E-20
   272.6875  3.135328E-20
   272.8007  3.210802E-20
   272.9139  3.304020E-20
   273.0271  3.419778E-20
   273.1402  3.505020E-20
   273.2533  3.566775E-20
   273.3664  3.606907E-20
   273.4794  3.610222E-20
   273.5924  3.607685E-20
   273.7054  3.584079E-20
   273.8183  3.577366E-20
   273.9313  3.585313E-20
   274.0441  3.645253E-20
   274.1570  3.708828E-20
   274.2698  3.761789E-20
   274.3826  3.816459E-20
   274.4954  3.827191E-20
   274.6081  3.851479E-20
   274.7208  3.856354E-20
   274.8335  3.848908E-20
   274.9461  3.841451E-20
   275.0588  3.837128E-20
   275.1713  3.846248E-20
   275.2839  3.836457E-20
   275.3964  3.816216E-20
   275.5090  3.804678E-20
   275.6214  3.774415E-20
   275.7339  3.749817E-20
   275.8463  3.736893E-20
   275.9587  3.737648E-20
   276.0711  3.751114E-20
   276.1834  3.776033E-20
   276.2958  3.814824E-20
   276.4081  3.864696E-20
   276.5203  3.918413E-20
   276.6326  3.965157E-20
   276.7448  4.025283E-20
   276.8570  4.077218E-20
   276.9691  4.116246E-20
   277.0813  4.143059E-20
   277.1934  4.168531E-20
   277.3055  4.168858E-20
   277.4176  4.185198E-20
   277.5296  4.191957E-20
   277.6416  4.209402E-20
   277.7536  4.215878E-20
   277.8656  4.239811E-20
   277.9776  4.303600E-20
   278.0895  4.367339E-20
   278.2014  4.436652E-20
   278.3133  4.494529E-20
   278.4251  4.537186E-20
   278.5370  4.555127E-20
   278.6488  4.576789E-20
   278.7606  4.609177E-20
   278.8723  4.668761E-20
   278.9841  4.756184E-20
   279.0958  4.863826E-20
   279.2075  4.999031E-20
   279.3192  5.126756E-20
   279.4309  5.242898E-20
   279.5425  5.324104E-20
   279.6541  5.335451E-20
   279.7657  5.324831E-20
   279.8773  5.301456E-20
   279.9889  5.264813E-20
   280.1004  5.211322E-20
   280.2119  5.145599E-20
   280.3234  5.108144E-20
   280.4349  5.084809E-20
   280.5464  5.109728E-20
   280.6578  5.180647E-20
   280.7692  5.250676E-20
   280.8807  5.298525E-20
   280.9920  5.332863E-20
   281.1034  5.368070E-20
   281.2148  5.406308E-20
   281.3261  5.464038E-20
   281.4374  5.533396E-20
   281.5487  5.575039E-20
   281.6600  5.596069E-20
   281.7712  5.556185E-20
   281.8825  5.484009E-20
   281.9937  5.361052E-20
   282.1049  5.256606E-20
   282.2161  5.164600E-20
   282.3273  5.114812E-20
   282.4385  5.070497E-20
   282.5496  5.070886E-20
   282.6607  5.078653E-20
   282.7718  5.112766E-20
   282.8829  5.171691E-20
   282.9940  5.253996E-20
   283.1051  5.366677E-20
   283.2161  5.519068E-20
   283.3272  5.645040E-20
   283.4382  5.729983E-20
   283.5492  5.813349E-20
   283.6602  5.895023E-20
   283.7712  6.001272E-20
   283.8821  6.147373E-20
   283.9931  6.274308E-20
   284.1040  6.353446E-20
   284.2149  6.384335E-20
   284.3259  6.408628E-20
   284.4367  6.429878E-20
   284.5476  6.455919E-20
   284.6585  6.494699E-20
   284.7693  6.568538E-20
   284.8802  6.640405E-20
   284.9910  6.703985E-20
   285.1018  6.767453E-20
   285.2126  6.825003E-20
   285.3234  6.881707E-20
   285.4342  6.925503E-20
   285.5450  6.996186E-20
   285.6557  7.066418E-20
   285.7665  7.131689E-20
   285.8772  7.203218E-20
   285.9879  7.261838E-20
   286.0986  7.293403E-20
   286.2093  7.305296E-20
   286.3200  7.326828E-20
   286.4307  7.309467E-20
   286.5413  7.295376E-20
   286.6520  7.252763E-20
   286.7626  7.210545E-20
   286.8733  7.144935E-20
   286.9839  7.087273E-20
   287.0945  7.041899E-20
   287.2051  7.028822E-20
   287.3157  7.023805E-20
   287.4263  7.067714E-20
   287.5369  7.118782E-20
   287.6474  7.186759E-20
   287.7580  7.223002E-20
   287.8685  7.247409E-20
   287.9791  7.228751E-20
   288.0896  7.208178E-20
   288.2001  7.219789E-20
   288.3106  7.264882E-20
   288.4211  7.335790E-20
   288.5316  7.418817E-20
   288.6421  7.513963E-20
   288.7526  7.589662E-20
   288.8630  7.669307E-20
   288.9735  7.758816E-20
   289.0839  7.836770E-20
   289.1944  7.895390E-20
   289.3048  7.950347E-20
   289.4152  8.019903E-20
   289.5257  8.112906E-20
   289.6361  8.230485E-20
   289.7465  8.356576E-20
   289.8569  8.489599E-20
   289.9673  8.605656E-20
   290.0777  8.678538E-20
   290.1880  8.735185E-20
   290.2984  8.740484E-20
   290.4088  8.737553E-20
   290.5191  8.737440E-20
   290.6295  8.747360E-20
   290.7398  8.779038E-20
   290.8502  8.855865E-20
   290.9605  8.990410E-20
   291.0708  9.179179E-20
   291.1811  9.357464E-20
   291.2915  9.535298E-20
   291.4018  9.674184E-20
   291.5121  9.789959E-20
   291.6224  9.879525E-20
   291.7327  9.920277E-20
   291.8429  9.959170E-20
   291.9532  9.974839E-20
   292.0635  1.000934E-19
   292.1738  1.007985E-19
   292.2840  1.019743E-19
   292.3943  1.032481E-19
   292.5046  1.043061E-19
   292.6148  1.047187E-19
   292.7251  1.041934E-19
   292.8353  1.026185E-19
   292.9455  1.009563E-19
   293.0558  9.942655E-20
   293.1660  9.815268E-20
   293.2762  9.685175E-20
   293.3864  9.601247E-20
   293.4967  9.535862E-20
   293.6069  9.480004E-20
   293.7171  9.428936E-20
   293.8273  9.402501E-20
   293.9375  9.409772E-20
   294.0477  9.447762E-20
   294.1579  9.520080E-20
   294.2681  9.633375E-20
   294.3782  9.832572E-20
   294.4884  1.009405E-19
   294.5986  1.033795E-19
   294.7088  1.055298E-19
   294.8189  1.070630E-19
   294.9291  1.080798E-19
   295.0393  1.081633E-19
   295.1494  1.071723E-19
   295.2596  1.053844E-19
   295.3698  1.031050E-19
   295.4799  1.011012E-19
   295.5901  9.973543E-20
   295.7002  9.895702E-20
   295.8103  9.886852E-20
   295.9205  9.963904E-20
   296.0306  1.012765E-19
   296.1408  1.036264E-19
   296.2509  1.065410E-19
   296.3610  1.096412E-19
   296.4711  1.125987E-19
   296.5813  1.154902E-19
   296.6914  1.183457E-19
   296.8015  1.209803E-19
   296.9116  1.234700E-19
   297.0217  1.260402E-19
   297.1318  1.293737E-19
   297.2420  1.326029E-19
   297.3521  1.355323E-19
   297.4622  1.374431E-19
   297.5723  1.384943E-19
   297.6824  1.383083E-19
   297.7925  1.367881E-19
   297.9026  1.342003E-19
   298.0126  1.314502E-19
   298.1227  1.288788E-19
   298.2328  1.270903E-19
   298.3429  1.260115E-19
   298.4530  1.254760E-19
   298.5631  1.250775E-19
   298.6732  1.248419E-19
   298.7832  1.248149E-19
   298.8933  1.250274E-19
   299.0034  1.257415E-19
   299.1135  1.267837E-19
   299.2235  1.280243E-19
   299.3336  1.290710E-19
   299.4437  1.300704E-19
   299.5537  1.309255E-19
   299.6638  1.316836E-19
   299.7738  1.321892E-19
   299.8839  1.320703E-19
   299.9939  1.311239E-19
   300.1040  1.294994E-19
   300.2140  1.276100E-19
   300.3241  1.260042E-19
   300.4341  1.251125E-19
   300.5442  1.250138E-19
   300.6542  1.256930E-19
   300.7643  1.264089E-19
   300.8743  1.268474E-19
   300.9843  1.267634E-19
   301.0944  1.264235E-19
   301.2044  1.262144E-19
   301.3144  1.266259E-19
   301.4244  1.278299E-19
   301.5345  1.300095E-19
   301.6445  1.327123E-19
   301.7545  1.357408E-19
   301.8645  1.385089E-19
   301.9745  1.413875E-19
   302.0845  1.441771E-19
   302.1945  1.465839E-19
   302.3045  1.481605E-19
   302.4145  1.491164E-19
   302.5245  1.493966E-19
   302.6345  1.495657E-19
   302.7445  1.503153E-19
   302.8545  1.520164E-19
   302.9645  1.545811E-19
   303.0745  1.576051E-19
   303.1845  1.601517E-19
   303.2945  1.617813E-19
   303.4044  1.623337E-19
   303.5144  1.621071E-19
   303.6244  1.614126E-19
   303.7343  1.606472E-19
   303.8443  1.595599E-19
   303.9543  1.587556E-19
   304.0642  1.583001E-19
   304.1742  1.580324E-19
   304.2841  1.580933E-19
   304.3941  1.589466E-19
   304.5040  1.600407E-19
   304.6140  1.609967E-19
   304.7239  1.618748E-19
   304.8338  1.629841E-19
   304.9438  1.645500E-19
   305.0537  1.656953E-19
   305.1636  1.658295E-19
   305.2735  1.652151E-19
   305.3834  1.640162E-19
   305.4933  1.626673E-19
   305.6032  1.612678E-19
   305.7131  1.600379E-19
   305.8230  1.589354E-19
   305.9329  1.581271E-19
   306.0428  1.579884E-19
   306.1527  1.583424E-19
   306.2625  1.591603E-19
   306.3724  1.606489E-19
   306.4823  1.625388E-19
   306.5921  1.644913E-19
   306.7020  1.662533E-19
   306.8118  1.683113E-19
   306.9217  1.705867E-19
   307.0315  1.730866E-19
   307.1413  1.749872E-19
   307.2511  1.760914E-19
   307.3610  1.763609E-19
   307.4708  1.763907E-19
   307.5806  1.756597E-19
   307.6904  1.742421E-19
   307.8002  1.722371E-19
   307.9099  1.704346E-19
   308.0197  1.689950E-19
   308.1295  1.681213E-19
   308.2393  1.672369E-19
   308.3490  1.669201E-19
   308.4588  1.674257E-19
   308.5685  1.692813E-19
   308.6782  1.723707E-19
   308.7880  1.769014E-19
   308.8977  1.823424E-19
   309.0074  1.879384E-19
   309.1171  1.922820E-19
   309.2268  1.950529E-19
   309.3365  1.967884E-19
   309.4461  1.977726E-19
   309.5558  1.982314E-19
   309.6655  1.976519E-19
   309.7751  1.957930E-19
   309.8848  1.932024E-19
   309.9944  1.902252E-19
   310.1040  1.876470E-19
   310.2136  1.859183E-19
   310.3232  1.851601E-19
   310.4328  1.852638E-19
   310.5424  1.856911E-19
   310.6520  1.876430E-19
   310.7615  1.898199E-19
   310.7958  1.902798E-19
   310.9108  1.916050E-19
   311.0257  1.935316E-19
   311.1406  1.935068E-19
   311.2555  1.956617E-19
   311.3704  1.967382E-19
   311.4852  1.997437E-19
   311.6001  2.003445E-19
   311.7149  2.010091E-19
   311.8297  1.991468E-19
   311.9444  1.988852E-19
   312.0592  1.987815E-19
   312.1739  2.022288E-19
   312.2886  2.055770E-19
   312.4033  2.104847E-19
   312.5180  2.130832E-19
   312.6326  2.150617E-19
   312.7472  2.142212E-19
   312.8619  2.137100E-19
   312.9764  2.116216E-19
   313.0910  2.105265E-19
   313.2055  2.081089E-19
   313.3201  2.069354E-19
   313.4346  2.042394E-19
   313.5491  2.025456E-19
   313.6635  2.003237E-19
   313.7780  2.004426E-19
   313.8924  2.001766E-19
   314.0068  2.013822E-19
   314.1211  2.018946E-19
   314.2355  2.039875E-19
   314.3498  2.056012E-19
   314.4641  2.090790E-19
   314.5784  2.125635E-19
   314.6927  2.173789E-19
   314.8069  2.212146E-19
   314.9212  2.254651E-19
   315.0354  2.277507E-19
   315.1496  2.296570E-19
   315.2637  2.285494E-19
   315.3779  2.270422E-19
   315.4920  2.241647E-19
   315.6061  2.229343E-19
   315.7202  2.211475E-19
   315.8342  2.205404E-19
   315.9482  2.188382E-19
   316.0622  2.184290E-19
   316.1762  2.172137E-19
   316.2902  2.172069E-19
   316.4041  2.166123E-19
   316.5181  2.178377E-19
   316.6320  2.190659E-19
   316.7458  2.220071E-19
   316.8597  2.243958E-19
   316.9735  2.279136E-19
   317.0873  2.306113E-19
   317.2011  2.347395E-19
   317.3149  2.381936E-19
   317.4286  2.432423E-19
   317.5424  2.474483E-19
   317.6561  2.520320E-19
   317.7697  2.540905E-19
   317.8834  2.552764E-19
   317.9970  2.545792E-19
   318.1106  2.543723E-19
   318.2242  2.535522E-19
   318.3378  2.531007E-19
   318.4513  2.509560E-19
   318.5649  2.488761E-19
   318.6784  2.458656E-19
   318.7918  2.440072E-19
   318.9053  2.417785E-19
   319.0187  2.411478E-19
   319.1321  2.401800E-19
   319.2455  2.406016E-19
   319.3589  2.403654E-19
   319.4722  2.417779E-19
   319.5855  2.435078E-19
   319.6988  2.478593E-19
   319.8121  2.522451E-19
   319.9253  2.578033E-19
   320.0386  2.619890E-19
   320.1518  2.663963E-19
   320.2650  2.690917E-19
   320.3781  2.712725E-19
   320.4912  2.708436E-19
   320.6044  2.693183E-19
   320.7174  2.650300E-19
   320.8305  2.613008E-19
   320.9436  2.576353E-19
   321.0566  2.564415E-19
   321.1696  2.550820E-19
   321.2825  2.547613E-19
   321.3955  2.534288E-19
   321.5084  2.533730E-19
   321.6213  2.534113E-19
   321.7342  2.555312E-19
   321.8471  2.576466E-19
   321.9599  2.612614E-19
   322.0727  2.639252E-19
   322.1855  2.672660E-19
   322.2983  2.695049E-19
   322.4110  2.725903E-19
   322.5237  2.747458E-19
   322.6364  2.777737E-19
   322.7491  2.792911E-19
   322.8618  2.809319E-19
   322.9744  2.809843E-19
   323.0870  2.812385E-19
   323.1996  2.804725E-19
   323.3121  2.803277E-19
   323.4247  2.790177E-19
   323.5372  2.785815E-19
   323.6497  2.774085E-19
   323.7621  2.772783E-19
   323.8746  2.760754E-19
   323.9870  2.751172E-19
   324.0994  2.731117E-19
   324.2118  2.729404E-19
   324.3241  2.723677E-19
   324.4365  2.733265E-19
   324.5488  2.742853E-19
   324.6610  2.771774E-19
   324.7733  2.800498E-19
   324.8855  2.847112E-19
   324.9978  2.896461E-19
   325.1099  2.957590E-19
   325.2221  3.002756E-19
   325.3343  3.045081E-19
   325.4464  3.061269E-19
   325.5585  3.066663E-19
   325.6705  3.048141E-19
   325.7826  3.032049E-19
   325.8946  3.013065E-19
   326.0066  3.012591E-19
   326.1186  3.009965E-19
   326.2306  3.024637E-19
   326.3425  3.043040E-19
   326.4544  3.077711E-19
   326.5663  3.090387E-19
   326.6782  3.088657E-19
   326.7900  3.063259E-19
   326.9018  3.043423E-19
   327.0136  3.015776E-19
   327.1254  3.003032E-19
   327.2372  2.994909E-19
   327.3489  3.011340E-19
   327.4606  3.037539E-19
   327.5723  3.082457E-19
   327.6840  3.114354E-19
   327.7956  3.147712E-19
   327.9072  3.165022E-19
   328.0188  3.175534E-19
   328.1304  3.158607E-19
   328.2419  3.139144E-19
   328.3534  3.110099E-19
   328.4649  3.093065E-19
   328.5764  3.070614E-19
   328.6879  3.059967E-19
   328.7993  3.052932E-19
   328.9107  3.069938E-19
   329.0221  3.097817E-19
   329.1335  3.144380E-19
   329.2448  3.180556E-19
   329.3561  3.224149E-19
   329.4674  3.261621E-19
   329.5787  3.309470E-19
   329.6900  3.341216E-19
   329.8012  3.368840E-19
   329.9124  3.376371E-19
   330.0236  3.372549E-19
   330.1348  3.338719E-19
   330.2459  3.296320E-19
   330.3570  3.243517E-19
   330.4681  3.207640E-19
   330.5792  3.182596E-19
   330.6902  3.184671E-19
   330.8013  3.188329E-19
   330.9123  3.205639E-19
   331.0232  3.221506E-19
   331.1342  3.245709E-19
   331.2451  3.257958E-19
   331.3561  3.273114E-19
   331.4670  3.275437E-19
   331.5778  3.280870E-19
   331.6887  3.275453E-19
   331.7995  3.273396E-19
   331.9103  3.262940E-19
   332.0211  3.264789E-19
   332.1319  3.273047E-19
   332.2426  3.313112E-19
   332.3533  3.379009E-19
   332.4640  3.480924E-19
   332.5747  3.588633E-19
   332.6853  3.704894E-19
   332.7960  3.810946E-19
   332.9066  3.909124E-19
   333.0172  3.970433E-19
   333.1277  3.993509E-19
   333.2383  3.963788E-19
   333.3488  3.899700E-19
   333.4593  3.800862E-19
   333.5698  3.707672E-19
   333.6802  3.624065E-19
   333.7907  3.564520E-19
   333.9011  3.501650E-19
   334.0115  3.435916E-19
   334.1219  3.360639E-19
   334.2322  3.307791E-19
   334.3425  3.281507E-19
   334.4529  3.293327E-19
   334.5631  3.318940E-19
   334.6734  3.375537E-19
   334.7836  3.456642E-19
   334.8939  3.578375E-19
   335.0041  3.703919E-19
   335.1143  3.791308E-19
   335.2244  3.787396E-19
   335.3346  3.729452E-19
   335.4447  3.653155E-19
   335.5548  3.598283E-19
   335.6648  3.553382E-19
   335.7749  3.532854E-19
   335.8849  3.529652E-19
   335.9949  3.557598E-19
   336.1049  3.596440E-19
   336.2149  3.650157E-19
   336.3249  3.692504E-19
   336.4348  3.727451E-19
   336.5447  3.741267E-19
   336.6546  3.752574E-19
   336.7645  3.755544E-19
   336.8743  3.765340E-19
   336.9841  3.754451E-19
   337.0940  3.724238E-19
   337.2037  3.675815E-19
   337.3135  3.632774E-19
   337.4233  3.578634E-19
   337.5330  3.535289E-19
   337.6427  3.497377E-19
   337.7524  3.477412E-19
   337.8620  3.457679E-19
   337.9717  3.468416E-19
   338.0813  3.510764E-19
   338.1909  3.603835E-19
   338.3005  3.727541E-19
   338.4101  3.884210E-19
   338.5196  4.036483E-19
   338.6292  4.161745E-19
   338.7387  4.226695E-19
   338.8482  4.264173E-19
   338.9576  4.283619E-19
   339.0671  4.298747E-19
   339.1765  4.289780E-19
   339.2859  4.263947E-19
   339.3953  4.208494E-19
   339.5047  4.146238E-19
   339.6140  4.074186E-19
   339.7234  4.025756E-19
   339.8327  3.993357E-19
   339.9420  3.991215E-19
   340.0512  3.996733E-19
   340.1605  4.012104E-19
   340.2697  4.022882E-19
   340.3790  4.042328E-19
   340.4882  4.060641E-19
   340.5973  4.087443E-19
   340.7065  4.113219E-19
   340.8156  4.160116E-19
   340.9248  4.220979E-19
   341.0339  4.304886E-19
   341.1430  4.378601E-19
   341.2520  4.440113E-19
   341.3611  4.464040E-19
   341.4701  4.467721E-19
   341.5791  4.442384E-19
   341.6881  4.414478E-19
   341.7971  4.377164E-19
   341.9061  4.334585E-19
   342.0150  4.254449E-19
   342.1239  4.163193E-19
   342.2328  4.065015E-19
   342.3417  3.988431E-19
   342.4506  3.919546E-19
   342.5594  3.873878E-19
   342.6683  3.831148E-19
   342.7771  3.790919E-19
   342.8859  3.744643E-19
   342.9947  3.719955E-19
   343.1034  3.708304E-19
   343.2122  3.724543E-19
   343.3209  3.774787E-19
   343.4296  3.868293E-19
   343.5383  3.958861E-19
   343.6470  4.032402E-19
   343.7556  4.074789E-19
   343.8643  4.110773E-19
   343.9729  4.124577E-19
   344.0815  4.131493E-19
   344.1901  4.115880E-19
   344.2987  4.104003E-19
   344.4072  4.085916E-19
   344.5158  4.093423E-19
   344.6243  4.116404E-19
   344.7328  4.165684E-19
   344.8413  4.200631E-19
   344.9498  4.229795E-19
   345.0582  4.242883E-19
   345.1666  4.259235E-19
   345.2751  4.272188E-19
   345.3835  4.285411E-19
   345.4919  4.264646E-19
   345.6002  4.242066E-19
   345.7086  4.226588E-19
   345.8169  4.259799E-19
   345.9253  4.318306E-19
   346.0336  4.409743E-19
   346.1419  4.492477E-19
   346.2501  4.564828E-19
   346.3584  4.599938E-19
   346.4666  4.626814E-19
   346.5749  4.651135E-19
   346.6831  4.691454E-19
   346.7913  4.715049E-19
   346.8995  4.717608E-19
   347.0076  4.677109E-19
   347.1158  4.624497E-19
   347.2239  4.556210E-19
   347.3320  4.516032E-19
   347.4401  4.481237E-19
   347.5482  4.466205E-19
   347.6563  4.450828E-19
   347.7644  4.468617E-19
   347.8724  4.504545E-19
   347.9805  4.595130E-19
   348.0885  4.747904E-19
   348.1965  5.004155E-19
   348.3045  5.258184E-19
   348.4124  5.450956E-19
   348.5204  5.537883E-19
   348.6283  5.511972E-19
   348.7363  5.396873E-19
   348.8442  5.272552E-19
   348.9521  5.137471E-19
   349.0599  5.002717E-19
   349.1678  4.831360E-19
   349.2757  4.644388E-19
   349.3835  4.457592E-19
   349.4913  4.331614E-19
   349.5992  4.251400E-19
   349.7070  4.217502E-19
   349.8147  4.186591E-19
   349.9225  4.189527E-19
   350.0303  4.200958E-19
   350.1380  4.238481E-19
   350.2458  4.269747E-19
   350.3535  4.320116E-19
   350.4612  4.390432E-19
   350.5689  4.491829E-19
   350.6765  4.563633E-19
   350.7842  4.624193E-19
   350.8919  4.674003E-19
   350.9995  4.724112E-19
   351.1071  4.759358E-19
   351.2147  4.806254E-19
   351.3223  4.821310E-19
   351.4299  4.801226E-19
   351.5375  4.735205E-19
   351.6451  4.645256E-19
   351.7526  4.530642E-19
   351.8601  4.449069E-19
   351.9677  4.422730E-19
   352.0752  4.473983E-19
   352.1827  4.564935E-19
   352.2901  4.663378E-19
   352.3976  4.697863E-19
   352.5051  4.686916E-19
   352.6125  4.628645E-19
   352.7200  4.532136E-19
   352.8274  4.399315E-19
   352.9348  4.274967E-19
   353.0422  4.185570E-19
   353.1496  4.160702E-19
   353.2570  4.172894E-19
   353.3643  4.222992E-19
   353.4717  4.299948E-19
   353.5790  4.409179E-19
   353.6864  4.523912E-19
   353.7937  4.668626E-19
   353.9010  4.831433E-19
   354.0083  4.996055E-19
   354.1156  5.152188E-19
   354.2228  5.336865E-19
   354.3301  5.510602E-19
   354.4374  5.643913E-19
   354.5446  5.700391E-19
   354.6518  5.703604E-19
   354.7591  5.664655E-19
   354.8663  5.611226E-19
   354.9735  5.524310E-19
   355.0806  5.414481E-19
   355.1878  5.284282E-19
   355.2950  5.159352E-19
   355.4021  5.039598E-19
   355.5093  4.944351E-19
   355.6164  4.862806E-19
   355.7236  4.790421E-19
   355.8307  4.718059E-19
   355.9378  4.676917E-19
   356.0449  4.669319E-19
   356.1520  4.713955E-19
   356.2590  4.779238E-19
   356.3661  4.851685E-19
   356.4731  4.918056E-19
   356.5802  5.005412E-19
   356.6872  5.120285E-19
   356.7943  5.266955E-19
   356.9013  5.407176E-19
   357.0083  5.552820E-19
   357.1153  5.691035E-19
   357.2223  5.804274E-19
   357.3292  5.848690E-19
   357.4362  5.830596E-19
   357.5432  5.776203E-19
   357.6501  5.718992E-19
   357.7571  5.616790E-19
   357.8640  5.510760E-19
   357.9709  5.439587E-19
   358.0778  5.393338E-19
   358.1848  5.323490E-19
   358.2917  5.260214E-19
   358.3985  5.199575E-19
   358.5054  5.141535E-19
   358.6123  5.069996E-19
   358.7192  5.009724E-19
   358.8260  4.948533E-19
   358.9329  4.887387E-19
   359.0397  4.806361E-19
   359.1465  4.745858E-19
   359.2534  4.732770E-19
   359.3602  4.756252E-19
   359.4670  4.773799E-19
   359.5738  4.783415E-19
   359.6806  4.779148E-19
   359.7874  4.787219E-19
   359.8942  4.782389E-19
   360.0009  4.768968E-19
   360.1077  4.762909E-19
   360.2144  4.804811E-19
   360.3212  4.889901E-19
   360.4279  4.992944E-19
   360.5347  5.086173E-19
   360.6414  5.188353E-19
   360.7481  5.302792E-19
   360.8548  5.408924E-19
   360.9615  5.473169E-19
   361.0682  5.514812E-19
   361.1749  5.525325E-19
   361.2816  5.519029E-19
   361.3883  5.476512E-19
   361.4950  5.417006E-19
   361.6016  5.344712E-19
   361.7083  5.280229E-19
   361.8149  5.231647E-19
   361.9216  5.207585E-19
   362.0282  5.196509E-19
   362.1348  5.214918E-19
   362.2415  5.245671E-19
   362.3481  5.287681E-19
   362.4547  5.309962E-19
   362.5613  5.334323E-19
   362.6679  5.349384E-19
   362.7745  5.342632E-19
   362.8811  5.329876E-19
   362.9877  5.349035E-19
   363.0943  5.358589E-19
   363.2008  5.340095E-19
   363.3074  5.298751E-19
   363.4140  5.280359E-19
   363.5205  5.257158E-19
   363.6271  5.210234E-19
   363.7336  5.133255E-19
   363.8402  5.065746E-19
   363.9467  5.028183E-19
   364.0532  5.058768E-19
   364.1597  5.140622E-19
   364.2663  5.247170E-19
   364.3728  5.347631E-19
   364.4793  5.442444E-19
   364.5858  5.527371E-19
   364.6923  5.636867E-19
   364.7988  5.752192E-19
   364.9053  5.838657E-19
   365.0118  5.902463E-19
   365.1183  6.004260E-19
   365.2247  6.124883E-19
   365.3312  6.240151E-19
   365.4377  6.293755E-19
   365.5441  6.273181E-19
   365.6506  6.230230E-19
   365.7571  6.176683E-19
   365.8635  6.070715E-19
   365.9700  5.950994E-19
   366.0764  5.821240E-19
   366.1828  5.673674E-19
   366.2893  5.505202E-19
   366.3957  5.353894E-19
   366.5021  5.240119E-19
   366.6086  5.178449E-19
   366.7150  5.150170E-19
   366.8214  5.162796E-19
   366.9278  5.212866E-19
   367.0342  5.305695E-19
   367.1406  5.406776E-19
   367.2470  5.515168E-19
   367.3534  5.634646E-19
   367.4598  5.738044E-19
   367.5662  5.770172E-19
   367.6726  5.757152E-19
   367.7790  5.718654E-19
   367.8854  5.694586E-19
   367.9918  5.691316E-19
   368.0982  5.685962E-19
   368.2045  5.655862E-19
   368.3109  5.609873E-19
   368.4173  5.553897E-19
   368.5236  5.527230E-19
   368.6300  5.509103E-19
   368.7364  5.461113E-19
   368.8427  5.396715E-19
   368.9491  5.390255E-19
   369.0554  5.422141E-19
   369.1618  5.470825E-19
   369.2681  5.533582E-19
   369.3745  5.588184E-19
   369.4808  5.588629E-19
   369.5872  5.568540E-19
   369.6935  5.543925E-19
   369.7999  5.517107E-19
   369.9062  5.488366E-19
   370.0125  5.512005E-19
   370.1189  5.572971E-19
   370.2252  5.603572E-19
   370.3315  5.582136E-19
   370.4379  5.540465E-19
   370.5442  5.475193E-19
   370.6505  5.394798E-19
   370.7569  5.298847E-19
   370.8632  5.201463E-19
   370.9695  5.144940E-19
   371.0758  5.179892E-19
   371.1821  5.287123E-19
   371.2885  5.388502E-19
   371.3948  5.450431E-19
   371.5011  5.545256E-19
   371.6074  5.684383E-19
   371.7137  5.851677E-19
   371.8200  6.008713E-19
   371.9263  6.136945E-19
   372.0326  6.244040E-19
   372.1390  6.311003E-19
   372.2453  6.298940E-19
   372.3516  6.278423E-19
   372.4579  6.296291E-19
   372.5642  6.318612E-19
   372.6705  6.298095E-19
   372.7768  6.227074E-19
   372.8831  6.108762E-19
   372.9894  5.980699E-19
   373.0957  5.863289E-19
   373.2020  5.780713E-19
   373.3083  5.711890E-19
   373.4146  5.657328E-19
   373.5209  5.598307E-19
   373.6272  5.547916E-19
   373.7335  5.538728E-19
   373.8398  5.584374E-19
   373.9461  5.663866E-19
   374.0524  5.722543E-19
   374.1587  5.704506E-19
   374.2650  5.655806E-19
   374.3713  5.581719E-19
   374.4776  5.465994E-19
   374.5839  5.352879E-19
   374.6902  5.303164E-19
   374.7965  5.297973E-19
   374.9028  5.331522E-19
   375.0091  5.388339E-19
   375.1154  5.502637E-19
   375.2217  5.676661E-19
   375.3280  5.857201E-19
   375.4343  5.992479E-19
   375.5406  6.083341E-19
   375.6469  6.138918E-19
   375.7532  6.183390E-19
   375.8595  6.213321E-19
   375.9659  6.221268E-19
   376.0722  6.295446E-19
   376.1785  6.490302E-19
   376.2848  6.701674E-19
   376.3911  6.836332E-19
   376.4974  6.849804E-19
   376.6037  6.773992E-19
   376.7100  6.660640E-19
   376.8163  6.551854E-19
   376.9226  6.403330E-19
   377.0290  6.213884E-19
   377.1353  6.041630E-19
   377.2416  5.913342E-19
   377.3479  5.774062E-19
   377.4542  5.616384E-19
   377.5605  5.484809E-19
   377.6669  5.432710E-19
   377.7732  5.415907E-19
   377.8795  5.419363E-19
   377.9858  5.467364E-19
   378.0922  5.501572E-19
   378.1985  5.452861E-19
   378.3048  5.388344E-19
   378.4112  5.365561E-19
   378.5175  5.404837E-19
   378.6238  5.445172E-19
   378.7302  5.463570E-19
   378.8365  5.500642E-19
   378.9428  5.549173E-19
   379.0492  5.601824E-19
   379.1555  5.674012E-19
   379.2619  5.755799E-19
   379.3682  5.877267E-19
   379.4746  6.040503E-19
   379.5809  6.246802E-19
   379.6872  6.450339E-19
   379.7936  6.593114E-19
   379.9000  6.656131E-19
   380.0063  6.661767E-19
   380.1127  6.596665E-19
   380.2190  6.499434E-19
   380.3254  6.436473E-19
   380.4318  6.407332E-19
   380.5381  6.391211E-19
   380.6445  6.397637E-19
   380.7509  6.402879E-19
   380.8572  6.376105E-19
   380.9636  6.293586E-19
   381.0700  6.205373E-19
   381.1764  6.146189E-19
   381.2827  6.108142E-19
   381.3891  6.071673E-19
   381.4955  6.044618E-19
   381.6019  6.026806E-19
   381.7083  6.051269E-19
   381.8147  6.085088E-19
   381.9211  6.070320E-19
   382.0275  6.025453E-19
   382.1339  6.025791E-19
   382.2403  6.056173E-19
   382.3467  6.014011E-19
   382.4531  5.859456E-19
   382.5595  5.695093E-19
   382.6659  5.604333E-19
   382.7723  5.616699E-19
   382.8787  5.678183E-19
   382.9851  5.702364E-19
   383.0916  5.688442E-19
   383.1980  5.707944E-19
   383.3044  5.790069E-19
   383.4108  5.866671E-19
   383.5173  5.883186E-19
   383.6237  5.865994E-19
   383.7301  5.901674E-19
   383.8366  6.012602E-19
   383.9430  6.136663E-19
   384.0495  6.233725E-19
   384.1559  6.228088E-19
   384.2623  6.158251E-19
   384.3688  6.136325E-19
   384.4753  6.222114E-19
   384.5817  6.338396E-19
   384.6882  6.411898E-19
   384.7946  6.489401E-19
   384.9011  6.573611E-19
   385.0076  6.544695E-19
   385.1140  6.418718E-19
   385.2205  6.267319E-19
   385.3270  6.173470E-19
   385.4334  6.152276E-19
   385.5399  6.142581E-19
   385.6464  6.182883E-19
   385.7529  6.328532E-19
   385.8594  6.408516E-19
   385.9659  6.327405E-19
   386.0724  6.158758E-19
   386.1789  6.004260E-19
   386.2854  5.882397E-19
   386.3919  5.779473E-19
   386.4984  5.697122E-19
   386.6049  5.660766E-19
   386.7114  5.678803E-19
   386.8179  5.757772E-19
   386.9244  5.879691E-19
   387.0309  5.998341E-19
   387.1374  6.079057E-19
   387.2440  6.143709E-19
   387.3505  6.195847E-19
   387.4570  6.251593E-19
   387.5636  6.289584E-19
   387.6701  6.296629E-19
   387.7766  6.299448E-19
   387.8832  6.333887E-19
   387.9897  6.364437E-19
   388.0963  6.340144E-19
   388.2028  6.273181E-19
   388.3093  6.207120E-19
   388.4159  6.138636E-19
   388.5225  6.092754E-19
   388.6290  6.073139E-19
   388.7356  6.087963E-19
   388.8421  6.131421E-19
   388.9487  6.199398E-19
   389.0553  6.312074E-19
   389.1618  6.448535E-19
   389.2684  6.540524E-19
   389.3750  6.545710E-19
   389.4816  6.504281E-19
   389.5882  6.429089E-19
   389.6947  6.313088E-19
   389.8013  6.222790E-19
   389.9079  6.212926E-19
   390.0145  6.272392E-19
   390.1211  6.314666E-19
   390.2277  6.333493E-19
   390.3343  6.382644E-19
   390.4409  6.419056E-19
   390.5475  6.383884E-19
   390.6541  6.306888E-19
   390.7607  6.243476E-19
   390.8673  6.192803E-19
   390.9739  6.163606E-19
   391.0805  6.180628E-19
   391.1872  6.228539E-19
   391.2938  6.272054E-19
   391.4004  6.264106E-19
   391.5070  6.275379E-19
   391.6136  6.418210E-19
   391.7203  6.652467E-19
   391.8269  6.898842E-19
   391.9335  7.028089E-19
   392.0402  6.920712E-19
   392.1468  6.688316E-19
   392.2534  6.489119E-19
   392.3601  6.407276E-19
   392.4667  6.390140E-19
   392.5734  6.378078E-19
   392.6800  6.375880E-19
   392.7867  6.378134E-19
   392.8933  6.357730E-19
   393.0000  6.238854E-19
   393.1066  6.028948E-19
   393.2133  5.819549E-19
   393.3199  5.684158E-19
   393.4266  5.623909E-19
   393.5333  5.662457E-19
   393.6399  5.758054E-19
   393.7466  5.842602E-19
   393.8532  5.877493E-19
   393.9599  5.861316E-19
   394.0666  5.860132E-19
   394.1732  5.836853E-19
   394.2799  5.757659E-19
   394.3866  5.690189E-19
   394.4933  5.674238E-19
   394.5999  5.670743E-19
   394.7066  5.659470E-19
   394.8133  5.666685E-19
   394.9200  5.783418E-19
   395.0267  5.928279E-19
   395.1333  6.024946E-19
   395.2400  6.134747E-19
   395.3467  6.291556E-19
   395.4534  6.492444E-19
   395.5601  6.659851E-19
   395.6668  6.655736E-19
   395.7734  6.636910E-19
   395.8801  6.684877E-19
   395.9868  6.772470E-19
   396.0935  6.694854E-19
   396.2002  6.517922E-19
   396.3069  6.331463E-19
   396.4136  6.202667E-19
   396.5203  6.058709E-19
   396.6270  5.935099E-19
   396.7337  5.829244E-19
   396.8404  5.761492E-19
   396.9470  5.761774E-19
   397.0537  5.782460E-19
   397.1604  5.802019E-19
   397.2671  5.803372E-19
   397.3738  5.751910E-19
   397.4805  5.723614E-19
   397.5872  5.726940E-19
   397.6939  5.903027E-19
   397.8006  6.133563E-19
   397.9073  6.359365E-19
   398.0140  6.635952E-19
   398.1207  6.796933E-19
   398.2274  6.877085E-19
   398.3341  6.954588E-19
   398.4408  7.070927E-19
   398.5475  7.213589E-19
   398.6541  7.164043E-19
   398.7608  6.960394E-19
   398.8675  6.689781E-19
   398.9742  6.348881E-19
   399.0809  6.056229E-19
   399.1876  5.902237E-19
   399.2943  5.824960E-19
   399.4010  5.808727E-19
   399.5076  5.911932E-19
   399.6143  6.085257E-19
   399.7210  6.248267E-19
   399.8277  6.401188E-19
   399.9344  6.599370E-19
   400.0410  6.830809E-19
   400.1477  7.052270E-19
   400.2544  7.119965E-19
   400.3611  7.088119E-19
   400.4677  6.980629E-19
   400.5744  7.021889E-19
   400.6811  6.971385E-19
   400.7877  6.869645E-19
   400.8944  6.856680E-19
   401.0011  6.879565E-19
   401.1077  6.852509E-19
   401.2144  6.884976E-19
   401.3210  6.811757E-19
   401.4277  6.712215E-19
   401.5343  6.615716E-19
   401.6410  6.553545E-19
   401.7476  6.469447E-19
   401.8543  6.433767E-19
   401.9609  6.376613E-19
   402.0675  6.230907E-19
   402.1742  6.107635E-19
   402.2808  5.943385E-19
   402.3477  5.874956E-19
   402.5947  5.704957E-19
   402.8416  5.621840E-19
   403.0885  5.589897E-19
   403.3354  5.585924E-19
   403.5821  5.686638E-19
   403.8289  5.946146E-19
   404.0756  6.211911E-19
   404.3223  6.248437E-19
   404.5689  6.155546E-19
   404.8154  6.242913E-19
   405.0620  6.528575E-19
   405.3084  6.729914E-19
   405.5549  6.558505E-19
   405.8013  6.158477E-19
   406.0476  5.893783E-19
   406.2939  5.790408E-19
   406.5402  5.609772E-19
   406.7864  5.334757E-19
   407.0325  5.144652E-19
   407.2787  5.111492E-19
   407.5248  5.243264E-19
   407.7708  5.577452E-19
   408.0168  6.078099E-19
   408.2627  6.636572E-19
   408.5086  7.032316E-19
   408.7545  7.012983E-19
   409.0003  6.704887E-19
   409.2461  6.464430E-19
   409.4918  6.419338E-19
   409.7375  6.376782E-19
   409.9831  6.286596E-19
   410.2287  6.429709E-19
   410.4743  6.755673E-19
   410.7198  6.838023E-19
   410.9652  6.571469E-19
   411.2106  6.161182E-19
   411.4560  5.780600E-19
   411.7013  5.555170E-19
   411.9466  5.484786E-19
   412.1919  5.487176E-19
   412.4371  5.606232E-19
   412.6822  5.917344E-19
   412.9273  6.375485E-19
   413.1724  6.918514E-19
   413.4174  7.412786E-19
   413.6624  7.488880E-19
   413.9073  6.952390E-19
   414.1522  6.232541E-19
   414.3971  5.847844E-19
   414.6419  5.846999E-19
   414.8866  5.957307E-19
   415.1314  5.949979E-19
   415.3760  5.707324E-19
   415.6207  5.329459E-19
   415.8653  5.084014E-19
   416.1098  5.030635E-19
   416.3543  5.051355E-19
   416.5988  5.081190E-19
   416.8432  5.142527E-19
   417.0875  5.305002E-19
   417.3319  5.507902E-19
   417.5762  5.597157E-19
   417.8204  5.639122E-19
   418.0646  5.716850E-19
   418.3087  5.816618E-19
   418.5529  5.883806E-19
   418.7969  5.795593E-19
   419.0410  5.676718E-19
   419.2849  5.793282E-19
   419.5289  6.054369E-19
   419.7728  6.201484E-19
   420.0166  6.185758E-19
   420.2604  6.162028E-19
   420.5042  6.182432E-19
   420.7479  6.228088E-19
   420.9916  6.250184E-19
   421.2353  6.118175E-19
   421.4789  5.935212E-19
   421.7224  5.992254E-19
   421.9659  6.247478E-19
   422.2094  6.362239E-19
   422.4528  6.268165E-19
   422.6962  6.124037E-19
   422.9396  6.003471E-19
   423.1829  5.996819E-19
   423.4261  6.141398E-19
   423.6694  6.302886E-19
   423.9125  6.396961E-19
   424.1557  6.471533E-19
   424.3988  6.573217E-19
   424.6418  6.599596E-19
   424.8848  6.350966E-19
   425.1278  5.896432E-19
   425.3707  5.535442E-19
   425.6136  5.280793E-19
   425.8565  4.981287E-19
   426.0993  4.699182E-19
   426.3420  4.567224E-19
   426.5848  4.548076E-19
   426.8274  4.696476E-19
   427.0701  5.147566E-19
   427.3127  5.707099E-19
   427.5552  6.043039E-19
   427.7977  6.172004E-19
   428.0402  6.229441E-19
   428.2826  6.150529E-19
   428.5250  5.863683E-19
   428.7674  5.511149E-19
   429.0097  5.191109E-19
   429.2520  4.854616E-19
   429.4942  4.552574E-19
   429.7364  4.421659E-19
   429.9785  4.556435E-19
   430.2206  5.016110E-19
   430.4627  5.630334E-19
   430.7047  6.071955E-19
   430.9467  6.235134E-19
   431.1887  6.163606E-19
   431.4306  5.986561E-19
   431.6724  5.736973E-19
   431.9143  5.366379E-19
   432.1560  4.953690E-19
   432.3978  4.639349E-19
   432.6395  4.525907E-19
   432.8812  4.674127E-19
   433.1228  4.995102E-19
   433.3644  5.347389E-19
   433.6059  5.658286E-19
   433.8474  5.865374E-19
   434.0889  5.832907E-19
   434.3303  5.660935E-19
   434.5717  5.759519E-19
   434.8131  6.364550E-19
   435.0544  7.048437E-19
   435.2957  7.115005E-19
   435.5369  6.635614E-19
   435.7781  6.216026E-19
   436.0192  5.966382E-19
   436.2604  5.746273E-19
   436.5014  5.513386E-19
   436.7425  5.251246E-19
   436.9835  4.884941E-19
   437.2244  4.487122E-19
   437.4654  4.215286E-19
   437.7062  4.083109E-19
   437.9471  4.006378E-19
   438.1879  4.050213E-19
   438.4287  4.451516E-19
   438.6694  5.323546E-19
   438.9101  6.264783E-19
   439.1508  6.800033E-19
   439.3914  6.935424E-19
   439.6320  6.677775E-19
   439.8725  6.249395E-19
   440.1130  5.817125E-19
   440.3535  5.197332E-19
   440.5939  4.626120E-19
   440.8343  4.387191E-19
   441.0747  4.307140E-19
   441.3150  4.122429E-19
   441.5553  3.874865E-19
   441.7955  3.714177E-19
   442.0357  3.725834E-19
   442.2759  3.855289E-19
   442.5160  3.974294E-19
   442.7561  4.105283E-19
   442.9962  4.252736E-19
   443.2362  4.342752E-19
   443.4762  4.452609E-19
   443.7161  4.535253E-19
   443.9561  4.638921E-19
   444.1959  4.965770E-19
   444.4358  5.496916E-19
   444.6756  6.139256E-19
   444.9154  6.504788E-19
   445.1551  6.211855E-19
   445.3948  5.692782E-19
   445.6345  5.316410E-19
   445.8741  5.032185E-19
   446.1137  4.775631E-19
   446.3532  4.464300E-19
   446.5928  4.179855E-19
   446.8323  4.113360E-19
   447.0717  4.262741E-19
   447.3111  4.625743E-19
   447.5505  5.304500E-19
   447.7899  6.244660E-19
   448.0292  7.039024E-19
   448.2684  7.128533E-19
   448.5077  6.398482E-19
   448.7469  5.607162E-19
   448.9861  5.136620E-19
   449.2252  4.812471E-19
   449.4643  4.494979E-19
   449.7034  4.209221E-19
   449.9424  4.080651E-19
   450.1814  4.259370E-19
   450.4204  4.520293E-19
   450.6593  4.637703E-19
   450.8982  4.576941E-19
   451.1371  4.454593E-19
   451.3759  4.332099E-19
   451.6147  4.290157E-19
   451.8535  4.456290E-19
   452.0922  4.650369E-19
   452.3309  4.703973E-19
   452.5696  4.768562E-19
   452.8083  4.705371E-19
   453.0469  4.536848E-19
   453.2854  4.551593E-19
   453.5240  4.533556E-19
   453.7625  4.220900E-19
   454.0009  3.903527E-19
   454.2394  3.815551E-19
   454.4778  4.071153E-19
   454.7162  4.455005E-19
   454.9545  4.569106E-19
   455.1928  4.438986E-19
   455.4311  4.259635E-19
   455.6693  4.160048E-19
   455.9076  4.232608E-19
   456.1457  4.237585E-19
   456.3839  3.992157E-19
   456.6220  3.639464E-19
   456.8601  3.496554E-19
   457.0982  3.714307E-19
   457.3362  4.226052E-19
   457.5742  4.754572E-19
   457.8122  5.049293E-19
   458.0501  5.100895E-19
   458.2880  4.960764E-19
   458.5259  4.818965E-19
   458.7637  4.604030E-19
   459.0015  4.201821E-19
   459.2393  4.007809E-19
   459.4771  4.129717E-19
   459.7148  4.272498E-19
   459.9525  4.395747E-19
   460.1901  4.629468E-19
   460.4278  4.893785E-19
   460.6654  4.918388E-19
   460.9030  4.684718E-19
   461.1405  4.468826E-19
   461.3780  4.286950E-19
   461.6155  4.051132E-19
   461.8530  3.823144E-19
   462.0904  3.744260E-19
   462.3278  3.799504E-19
   462.5652  4.050287E-19
   462.8025  4.703060E-19
   463.0398  5.413878E-19
   463.2771  5.653946E-19
   463.5144  5.505557E-19
   463.7516  5.114880E-19
   463.9888  4.706295E-19
   464.2260  4.483323E-19
   464.4631  4.389260E-19
   464.7002  4.258525E-19
   464.9373  4.015109E-19
   465.1744  3.719188E-19
   465.4114  3.351733E-19
   465.6484  3.020742E-19
   465.8854  2.877708E-19
   466.1223  2.940477E-19
   466.3593  3.221224E-19
   466.5962  3.679822E-19
   466.8330  4.171857E-19
   467.0699  4.443827E-19
   467.3067  4.347538E-19
   467.5435  4.163311E-19
   467.7802  4.155674E-19
   468.0170  4.188563E-19
   468.2537  3.952999E-19
   468.4904  3.616016E-19
   468.7270  3.476003E-19
   468.9637  3.423459E-19
   469.2003  3.339085E-19
   469.4369  3.195707E-19
   469.6734  3.048705E-19
   469.9100  3.087710E-19
   470.1465  3.259930E-19
   470.3830  3.390846E-19
   470.6194  3.373558E-19
   470.8558  3.230998E-19
   471.0922  3.128434E-19
   471.3286  3.108751E-19
   471.5650  3.182884E-19
   471.8013  3.370379E-19
   472.0376  3.485439E-19
   472.2739  3.430719E-19
   472.5102  3.323500E-19
   472.7464  3.316183E-19
   472.9826  3.372544E-19
   473.2188  3.494767E-19
   473.4550  3.833932E-19
   473.6911  4.378905E-19
   473.9272  4.943049E-19
   474.1633  5.042055E-19
   474.3994  4.763597E-19
   474.6355  4.688810E-19
   474.8715  4.751303E-19
   475.1075  4.627930E-19
   475.3435  4.407043E-19
   475.5794  4.096287E-19
   475.8154  3.804114E-19
   476.0513  3.650518E-19
   476.2872  3.535948E-19
   476.5230  3.406211E-19
   476.7589  3.305108E-19
   476.9947  3.231652E-19
   477.2305  3.189045E-19
   477.4663  3.196851E-19
   477.7021  3.214646E-19
   477.9378  3.217966E-19
   478.1735  3.150733E-19
   478.4092  3.083951E-19
   478.6449  3.126259E-19
   478.8805  3.240439E-19
   479.1162  3.387436E-19
   479.3518  3.695655E-19
   479.5874  4.056746E-19
   479.8230  4.204143E-19
   480.0585  3.985596E-19
   480.2940  3.662941E-19
   480.5296  3.544048E-19
   480.7650  3.463281E-19
   481.0005  3.404075E-19
   481.2360  3.534415E-19
   481.4714  3.613908E-19
   481.7068  3.451991E-19
   481.9422  3.213271E-19
   482.1776  2.976624E-19
   482.4129  2.821838E-19
   482.6483  2.727561E-19
   482.8836  2.565255E-19
   483.1189  2.390312E-19
   483.3542  2.315932E-19
   483.5894  2.279931E-19
   483.8247  2.286272E-19
   484.0599  2.380984E-19
   484.2951  2.496590E-19
   484.5303  2.600202E-19
   484.7655  2.677530E-19
   485.0006  2.718345E-19
   485.2358  2.725001E-19
   485.4709  2.690545E-19
   485.7060  2.708261E-19
   485.9411  2.788943E-19
   486.1762  2.824938E-19
   486.4112  2.679531E-19
   486.6462  2.514887E-19
   486.8813  2.510828E-19
   487.1163  2.481439E-19
   487.3512  2.457078E-19
   487.5862  2.587136E-19
   487.8212  2.801992E-19
   488.0561  3.062695E-19
   488.2910  3.486831E-19
   488.5259  4.023969E-19
   488.7608  4.490882E-19
   488.9957  4.548922E-19
   489.2305  4.212350E-19
   489.4654  3.959453E-19
   489.7002  3.742456E-19
   489.9350  3.427917E-19
   490.1698  3.227931E-19
   490.4046  3.102968E-19
   490.6394  2.876372E-19
   490.8741  2.607225E-19
   491.1089  2.372332E-19
   491.3436  2.223080E-19
   491.5783  2.218329E-19
   491.8130  2.363493E-19
   492.0477  2.532946E-19
   492.2824  2.525917E-19
   492.5170  2.415034E-19
   492.7517  2.395887E-19
   492.9863  2.489578E-19
   493.2209  2.667982E-19
   493.4555  2.862185E-19
   493.6901  2.938053E-19
   493.9247  2.985620E-19
   494.1592  3.113419E-19
   494.3938  3.302024E-19
   494.6283  3.449494E-19
   494.8628  3.439501E-19
   495.0974  3.265612E-19
   495.3319  3.103724E-19
   495.5664  3.131794E-19
   495.8008  3.223355E-19
   496.0353  3.222047E-19
   496.2698  3.206462E-19
   496.5042  3.210063E-19
   496.7386  3.166656E-19
   496.9731  2.941063E-19
   497.2075  2.632917E-19
   497.4419  2.408485E-19
   497.6763  2.229596E-19
   497.9106  2.132546E-19
   498.1450  2.049395E-19
   498.3794  1.909523E-19
   498.6137  1.819298E-19
   498.8480  1.772948E-19
   499.0824  1.712637E-19
   499.3167  1.620817E-19
   499.5510  1.526190E-19
   499.7853  1.498593E-19
   500.0196  1.509472E-19
   500.2539  1.519787E-19
   500.4881  1.565144E-19
   500.7224  1.630033E-19
   500.9566  1.735133E-19
   501.1909  1.833914E-19
   501.4251  1.819507E-19
   501.6593  1.814304E-19
   501.8936  1.931421E-19
   502.1278  2.113883E-19
   502.3620  2.340558E-19
   502.5962  2.549969E-19
   502.8304  2.765478E-19
   503.0645  2.760050E-19
   503.2987  2.485266E-19
   503.5329  2.232634E-19
   503.7670  2.131864E-19
   504.0012  2.195129E-19
   504.2353  2.459902E-19
   504.4694  2.813631E-19
   504.7036  3.169474E-19
   504.9377  3.307526E-19
   505.1718  3.127527E-19
   505.4059  2.851836E-19
   505.6400  2.536362E-19
   505.8741  2.282496E-19
   506.1082  2.215573E-19
   506.3423  2.267784E-19
   506.5764  2.252870E-19
   506.8104  2.172594E-19
   507.0445  2.067257E-19
   507.2786  1.943004E-19
   507.5126  1.865501E-19
   507.7467  1.834534E-19
   507.9807  1.876622E-19
   508.2147  1.949289E-19
   508.4488  2.079100E-19
   508.6828  2.204609E-19
   508.9168  2.295065E-19
   509.1509  2.450872E-19
   509.3849  2.508895E-19
   509.6189  2.580823E-19
   509.8529  2.708847E-19
   510.0869  2.663478E-19
   510.3209  2.537286E-19
   510.5549  2.455477E-19
   510.7889  2.414967E-19
   511.0229  2.400255E-19
   511.2569  2.431606E-19
   511.4909  2.403772E-19
   511.7249  2.254059E-19
   511.9588  2.227736E-19
   512.1928  2.338597E-19
   512.4268  2.432457E-19
   512.6608  2.424583E-19
   512.8947  2.240503E-19
   513.1287  2.049113E-19
   513.3627  1.919054E-19
   513.5967  1.831253E-19
   513.8306  1.762318E-19
   514.0646  1.674128E-19
   514.2985  1.663407E-19
   514.5325  1.668232E-19
   514.7665  1.608445E-19
   515.0004  1.529967E-19
   515.2344  1.462226E-19
   515.4683  1.455744E-19
   515.7023  1.482946E-19
   515.9362  1.454628E-19
   516.1702  1.411440E-19
   516.4042  1.428080E-19
   516.6381  1.389001E-19
   516.8721  1.284809E-19
   517.1060  1.233967E-19
   517.3400  1.268987E-19
   517.5739  1.277137E-19
   517.8079  1.308257E-19
   518.0418  1.448772E-19
   518.2758  1.662252E-19
   518.5098  1.898171E-19
   518.7437  1.946905E-19
   518.9777  1.807129E-19
   519.2117  1.775057E-19
   519.4456  1.827578E-19
   519.6796  1.814721E-19
   519.9136  1.842205E-19
   520.1475  1.869706E-19
   520.3815  1.772819E-19
   520.6155  1.657590E-19
   520.8494  1.617221E-19
   521.0834  1.556442E-19
   521.3174  1.452041E-19
   521.5514  1.419630E-19
   521.7854  1.415194E-19
   522.0194  1.403453E-19
   522.2534  1.386645E-19
   522.4874  1.378883E-19
   522.7214  1.432882E-19
   522.9554  1.504066E-19
   523.1894  1.527351E-19
   523.4234  1.448783E-19
   523.6574  1.367120E-19
   523.8914  1.398409E-19
   524.1254  1.469835E-19
   524.3595  1.555027E-19
   524.5935  1.675875E-19
   524.8275  1.918519E-19
   525.0616  2.171951E-19
   525.2956  2.309968E-19
   525.5297  2.313345E-19
   525.7637  2.185107E-19
   525.9978  2.110535E-19
   526.2319  2.119069E-19
   526.4659  2.143452E-19
   526.7000  2.117845E-19
   526.9341  1.934916E-19
   527.1682  1.703213E-19
   527.4023  1.638403E-19
   527.6364  1.716092E-19
   527.8705  1.785293E-19
   528.1046  1.796662E-19
   528.3387  1.728566E-19
   528.5728  1.629018E-19
   528.8070  1.541138E-19
   529.0411  1.484874E-19
   529.2753  1.471002E-19
   529.5094  1.428452E-19
   529.7436  1.378613E-19
   529.9777  1.413892E-19
   530.2119  1.506885E-19
   530.4461  1.579563E-19
   530.6803  1.531161E-19
   530.9145  1.450699E-19
   531.1487  1.461403E-19
   531.3829  1.490843E-19
   531.6171  1.504968E-19
   531.8514  1.517904E-19
   532.0856  1.521450E-19
   532.3199  1.551887E-19
   532.5541  1.593739E-19
   532.7884  1.571790E-19
   533.0227  1.495206E-19
   533.2570  1.458912E-19
   533.4913  1.382418E-19
   533.7256  1.252990E-19
   533.9599  1.222124E-19
   534.1942  1.231571E-19
   534.4285  1.202971E-19
   534.6629  1.139346E-19
   534.8972  1.057074E-19
   535.1316  9.400020E-20
   535.3660  8.223721E-20
   535.6004  7.869068E-20
   535.8348  7.979657E-20
   536.0692  8.269096E-20
   536.3036  8.797413E-20
   536.5380  8.919671E-20
   536.7725  8.376586E-20
   537.0069  7.942230E-20
   537.2414  8.071421E-20
   537.4758  8.139229E-20
   537.7103  8.226258E-20
   537.9448  9.188310E-20
   538.1793  1.074998E-19
   538.4139  1.213579E-19
   538.6484  1.267397E-19
   538.8829  1.225411E-19
   539.1175  1.230517E-19
   539.3521  1.271304E-19
   539.5866  1.179822E-19
   539.8212  1.044420E-19
   540.0558  9.612971E-20
   540.2905  8.696406E-20
   540.5251  7.766651E-20
   540.7598  7.471745E-20
   540.9944  7.892008E-20
   541.2291  8.699167E-20
   541.4638  9.823666E-20
   541.6985  1.148578E-19
   541.9332  1.276162E-19
   542.1679  1.347702E-19
   542.4027  1.411502E-19
   542.6374  1.415262E-19
   542.8722  1.426952E-19
   543.1070  1.478651E-19
   543.3418  1.471059E-19
   543.5766  1.428266E-19
   543.8114  1.362644E-19
   544.0463  1.279820E-19
   544.2811  1.215423E-19
   544.5160  1.195018E-19
   544.7509  1.251745E-19
   544.9858  1.382970E-19
   545.2207  1.522351E-19
   545.4557  1.506501E-19
   545.6906  1.350779E-19
   545.9256  1.213624E-19
   546.1606  1.157743E-19
   546.3956  1.120063E-19
   546.6306  1.032679E-19
   546.8656  9.957930E-20
   547.1007  1.071876E-19
   547.3358  1.209865E-19
   547.5708  1.313386E-19
   547.8059  1.342877E-19
   548.0411  1.328678E-19
   548.2762  1.285750E-19
   548.5113  1.240060E-19
   548.7465  1.248842E-19
   548.9817  1.282109E-19
   549.2169  1.337077E-19
   549.4521  1.334540E-19
   549.6874  1.230230E-19
   549.9226  1.118056E-19
   550.1579  1.047323E-19
   550.3932  1.017189E-19
   550.6285  9.870281E-20
   550.8638  9.523687E-20
   551.0992  9.006756E-20
   551.3346  8.495010E-20
   551.5699  8.489543E-20
   551.8053  8.774416E-20
   552.0408  8.829993E-20
   552.2762  9.303466E-20
   552.5117  9.910244E-20
   552.7472  1.013187E-19
   552.9827  1.091339E-19
   553.2182  1.176885E-19
   553.4537  1.117583E-19
   553.6893  9.950095E-20
   553.9249  9.595892E-20
   554.1605  9.627006E-20
   554.3961  9.244225E-20
   554.6317  8.589536E-20
   554.8674  7.742864E-20
   555.1031  7.119289E-20
   555.3388  6.882214E-20
   555.5745  6.560703E-20
   555.8102  6.013616E-20
   556.0460  5.706930E-20
   556.2818  5.827722E-20
   556.5176  6.190718E-20
   556.7534  6.310101E-20
   556.9893  6.201991E-20
   557.2251  6.145738E-20
   557.4610  6.056116E-20
   557.6969  6.083623E-20
   557.9329  6.305986E-20
   558.1688  6.659062E-20
   558.4048  6.560929E-20
   558.6408  6.084017E-20
   558.8768  5.688216E-20
   559.1129  5.236049E-20
   559.3489  4.827611E-20
   559.5850  4.891880E-20
   559.8211  5.021369E-20
   560.0573  5.222341E-20
   560.2934  5.536547E-20
   560.5296  5.746386E-20
   560.7658  5.933239E-20
   561.0020  6.194664E-20
   561.2383  6.445548E-20
   561.4746  6.586181E-20
   561.7109  6.792311E-20
   561.9472  6.954193E-20
   562.1835  6.865135E-20
   562.4199  6.933338E-20
   562.6563  7.522925E-20
   562.8927  8.238658E-20
   563.1291  8.669519E-20
   563.3656  9.391566E-20
   563.6021  1.091745E-19
   563.8386  1.178593E-19
   564.0752  1.110278E-19
   564.3117  1.126663E-19
   564.5483  1.239051E-19
   564.7849  1.223235E-19
   565.0215  1.094366E-19
   565.2582  9.992200E-20
   565.4949  9.657894E-20
   565.7316  8.965665E-20
   565.9683  7.476648E-20
   566.2051  6.129730E-20
   566.4419  5.452692E-20
   566.6787  5.432067E-20
   566.9155  5.463198E-20
   567.1524  5.557363E-20
   567.3893  6.297757E-20
   567.6262  7.081073E-20
   567.8632  7.546937E-20
   568.1001  8.115161E-20
   568.3371  8.468180E-20
   568.5742  8.081398E-20
   568.8112  7.343738E-20
   569.0483  7.087217E-20
   569.2854  7.145048E-20
   569.5225  6.969525E-20
   569.7597  7.035191E-20
   569.9968  7.655554E-20
   570.2341  8.308947E-20
   570.4713  8.986577E-20
   570.7086  1.000054E-19
   570.9458  1.037983E-19
   571.1832  1.000060E-19
   571.4205  9.673508E-20
   571.6579  9.547812E-20
   571.8953  9.612520E-20
   572.1327  9.731677E-20
   572.3702  9.348784E-20
   572.6077  8.339779E-20
   572.8452  7.418253E-20
   573.0827  7.114892E-20
   573.3203  6.961972E-20
   573.5579  6.469165E-20
   573.7955  6.025453E-20
   574.0332  5.588387E-20
   574.2709  5.156929E-20
   574.5086  4.890628E-20
   574.7463  4.693793E-20
   574.9841  4.669172E-20
   575.2219  4.597994E-20
   575.4597  4.361026E-20
   575.6976  4.023688E-20
   575.9355  3.614720E-20
   576.1734  3.307334E-20
   576.4113  3.142317E-20
   576.6493  3.060959E-20
   576.8873  3.073309E-20
   577.1253  3.208953E-20
   577.3634  3.280188E-20
   577.6015  3.340652E-20
   577.8396  3.621545E-20
   578.0778  3.852155E-20
   578.3160  4.050540E-20
   578.5542  4.583902E-20
   578.7924  5.296090E-20
   579.0307  5.775132E-20
   579.2690  5.830540E-20
   579.5073  5.632020E-20
   579.7457  5.527269E-20
   579.9841  5.518668E-20
   580.2225  5.410406E-20
   580.4610  5.258996E-20
   580.6995  4.947000E-20
   580.9380  4.419934E-20
   581.1766  3.916119E-20
   581.4151  3.608243E-20
   581.6538  3.566245E-20
   581.8924  3.607059E-20
   582.1311  3.501993E-20
   582.3698  3.292155E-20
   582.6085  3.179141E-20
   582.8473  3.304950E-20
   583.0861  3.568404E-20
   583.3249  3.672404E-20
   583.5638  3.598373E-20
   583.8027  3.653702E-20
   584.0416  3.888573E-20
   584.2806  4.153848E-20
   584.5196  4.538556E-20
   584.7586  5.064359E-20
   584.9977  5.517197E-20
   585.2368  5.788097E-20
   585.4759  6.086836E-20
   585.7151  6.098052E-20
   585.9543  5.648027E-20
   586.1935  5.354412E-20
   586.4327  5.290381E-20
   586.6720  5.246770E-20
   586.9114  5.189147E-20
   587.1507  4.999335E-20
   587.3901  4.690744E-20
   587.6295  4.402066E-20
   587.8690  4.150601E-20
   588.1085  3.951900E-20
   588.3480  3.846479E-20
   588.5875  3.814655E-20
   588.8271  3.863992E-20
   589.0668  4.054390E-20
   589.3064  4.451758E-20
   589.5461  4.877326E-20
   589.7858  5.087137E-20
   590.0256  5.289963E-20
   590.2654  5.699997E-20
   590.5052  6.184574E-20
   590.7451  6.227187E-20
   590.9850  5.851226E-20
   591.2249  5.579233E-20
   591.4648  5.915033E-20
   591.7048  6.631837E-20
   591.9449  7.083271E-20
   592.1849  7.413688E-20
   592.4250  7.482792E-20
   592.6652  7.184786E-20
   592.9053  7.315048E-20
   593.1455  7.398300E-20
   593.3858  6.562563E-20
   593.6260  5.815152E-20
   593.8664  5.325626E-20
   594.1067  4.559344E-20
   594.3471  3.942245E-20
   594.5875  3.752072E-20
   594.8279  3.621534E-20
   595.0684  3.337106E-20
   595.3089  3.010410E-20
   595.5495  2.755197E-20
   595.7901  2.631846E-20
   596.0307  2.669351E-20
   596.2714  2.911928E-20
   596.5120  3.025144E-20
   596.7528  2.916860E-20
   596.9935  2.926915E-20
   597.2343  3.082880E-20
   597.4752  3.183278E-20
   597.7161  3.262061E-20
   597.9570  3.283486E-20
   598.1979  3.186542E-20
   598.4389  3.228580E-20
   598.6799  3.470327E-20
   598.8294  3.644610E-20
   599.0535  3.838002E-20
   599.2775  3.852809E-20
   599.5015  3.875017E-20
   599.7254  4.212722E-20
   599.9492  4.581056E-20
   600.1731  4.602407E-20
   600.3968  4.586292E-20
   600.6205  4.668209E-20
   600.8442  4.588676E-20
   601.0678  4.392794E-20
   601.2913  4.375811E-20
   601.5148  4.454233E-20
   601.7383  4.251738E-20
   601.9617  4.081880E-20
   602.1850  3.828160E-20
   602.4083  3.539088E-20
   602.6316  3.300192E-20
   602.8548  2.990197E-20
   603.0779  2.672936E-20
   603.3010  2.292377E-20
   603.5240  1.942288E-20
   603.7470  1.780107E-20
   603.9700  1.700124E-20
   604.1929  1.587330E-20
   604.4157  1.515458E-20
   604.6385  1.450271E-20
   604.8612  1.436129E-20
   605.0839  1.576705E-20
   605.3066  1.801284E-20
   605.5291  1.959243E-20
   605.7517  1.973008E-20
   605.9742  1.809750E-20
   606.1966  1.594364E-20
   606.4190  1.541048E-20
   606.6413  1.657297E-20
   606.8636  1.799829E-20
   607.0859  1.795686E-20
   607.3080  1.719519E-20
   607.5302  1.749241E-20
   607.7523  1.894625E-20
   607.9743  2.079517E-20
   608.1963  2.072324E-20
   608.4182  1.935293E-20
   608.6401  1.920345E-20
   608.8620  1.898346E-20
   609.0838  1.873640E-20
   609.3055  1.896249E-20
   609.5272  1.877879E-20
   609.7489  1.846179E-20
   609.9705  1.857937E-20
   610.1920  1.893374E-20
   610.4135  1.947485E-20
   610.6350  1.973566E-20
   610.8564  2.097323E-20
   611.0777  2.459129E-20
   611.2990  2.929998E-20
   611.5203  3.475812E-20
   611.7415  3.909936E-20
   611.9627  4.047902E-20
   612.1838  4.382270E-20
   612.4049  4.853579E-20
   612.6259  5.253495E-20
   612.8469  5.530916E-20
   613.0678  4.823581E-20
   613.2887  3.827129E-20
   613.5095  3.367651E-20
   613.7303  3.349969E-20
   613.9510  3.471229E-20
   614.1717  3.438526E-20
   614.3924  3.361321E-20
   614.6129  3.200555E-20
   614.8335  2.916217E-20
   615.0540  2.740372E-20
   615.2745  2.724968E-20
   615.4949  2.818208E-20
   615.7152  3.068247E-20
   615.9355  3.334705E-20
   616.1558  3.484407E-20
   616.3760  3.649948E-20
   616.5962  3.943609E-20
   616.8163  4.277092E-20
   617.0364  4.212727E-20
   617.2565  3.853113E-20
   617.4765  3.576487E-20
   617.6964  3.484278E-20
   617.9163  3.424879E-20
   618.1361  3.146776E-20
   618.3560  2.703588E-20
   618.5757  2.324855E-20
   618.7954  2.143030E-20
   619.0151  2.140397E-20
   619.2347  2.204514E-20
   619.4543  2.317826E-20
   619.6739  2.481264E-20
   619.8933  2.587080E-20
   620.1128  2.676307E-20
   620.3322  2.997823E-20
   620.5515  3.336898E-20
   620.7709  3.429022E-20
   620.9901  3.281254E-20
   621.2093  3.000974E-20
   621.4285  2.679559E-20
   621.6476  2.371531E-20
   621.8667  2.159866E-20
   622.0858  2.012836E-20
   622.3048  1.939594E-20
   622.5237  2.024707E-20
   622.7426  2.150070E-20
   622.9615  2.157364E-20
   623.1803  2.158683E-20
   623.3991  2.273472E-20
   623.6178  2.354593E-20
   623.8365  2.342751E-20
   624.0552  2.247137E-20
   624.2738  2.176703E-20
   624.4923  2.176432E-20
   624.7109  2.149546E-20
   624.9293  2.109858E-20
   625.1478  2.112981E-20
   625.3662  2.129423E-20
   625.5845  2.070870E-20
   625.8028  1.990707E-20
   626.0211  1.905126E-20
   626.2393  1.795737E-20
   626.4574  1.729400E-20
   626.6756  1.741603E-20
   626.8937  1.711690E-20
   627.1117  1.607588E-20
   627.3297  1.520711E-20
   627.5477  1.448766E-20
   627.7656  1.380777E-20
   627.9835  1.303889E-20
   628.2013  1.241210E-20
   628.4191  1.205468E-20
   628.6368  1.214453E-20
   628.8545  1.247861E-20
   629.0722  1.289820E-20
   629.2898  1.293985E-20
   629.5074  1.196963E-20
   629.7249  1.083290E-20
   629.9424  1.009135E-20
   630.1599  9.292756E-21
   630.3773  8.889233E-21
   630.5947  9.498999E-21
   630.8120  1.042255E-20
   631.0293  1.098193E-20
   631.2465  1.176767E-20
   631.4638  1.264957E-20
   631.6809  1.292565E-20
   631.8980  1.309339E-20
   632.1151  1.347014E-20
   632.3322  1.370930E-20
   632.5492  1.320703E-20
   632.7661  1.211573E-20
   632.9831  1.132052E-20
   633.2000  1.131161E-20
   633.4168  1.255735E-20
   633.6336  1.385952E-20
   633.8504  1.414631E-20
   634.0671  1.405088E-20
   634.2838  1.443811E-20
   634.5004  1.461905E-20
   634.7170  1.380930E-20
   634.9336  1.245364E-20
   635.1501  1.202875E-20
   635.3666  1.267899E-20
   635.5830  1.325223E-20
   635.7994  1.325702E-20
   636.0158  1.353468E-20
   636.2321  1.450896E-20
   636.4484  1.492365E-20
   636.6647  1.456663E-20
   636.8809  1.477298E-20
   637.0970  1.480083E-20
   637.3132  1.435035E-20
   637.5293  1.449933E-20
   637.7453  1.541262E-20
   637.9613  1.617142E-20
   638.1773  1.568712E-20
   638.3933  1.393386E-20
   638.6092  1.296076E-20
   638.8250  1.325026E-20
   639.0408  1.367498E-20
   639.2566  1.370333E-20
   639.4724  1.334766E-20
   639.6881  1.374904E-20
   639.9037  1.523439E-20
   640.1194  1.568786E-20
   640.3350  1.480765E-20
   640.5505  1.486306E-20
   640.7661  1.571435E-20
   640.9815  1.576125E-20
   641.1970  1.577466E-20
   641.4124  1.561774E-20
   641.6278  1.575414E-20
   641.8431  1.734834E-20
   642.0584  1.892822E-20
   642.2737  1.987268E-20
   642.4889  2.156253E-20
   642.7041  2.251320E-20
   642.9192  2.161287E-20
   643.1343  2.051097E-20
   643.3494  2.074308E-20
   643.5644  2.111290E-20
   643.7794  1.968211E-20
   643.9944  1.745408E-20
   644.2093  1.564310E-20
   644.4242  1.413610E-20
   644.6391  1.340160E-20
   644.8539  1.412686E-20
   645.0687  1.558561E-20
   645.2834  1.628697E-20
   645.4982  1.649857E-20
   645.7128  1.682588E-20
   645.9275  1.720990E-20
   646.1421  1.908328E-20
   646.3567  2.173467E-20
   646.5712  2.350659E-20
   646.7857  2.529480E-20
   647.0002  2.677367E-20
   647.2146  2.678590E-20
   647.4290  2.576483E-20
   647.6433  2.546418E-20
   647.8577  2.483265E-20
   648.0720  2.227753E-20
   648.2862  1.851370E-20
   648.5004  1.475635E-20
   648.7146  1.222598E-20
   648.9288  1.162720E-20
   649.1429  1.175301E-20
   649.3570  1.164028E-20
   649.5710  1.133917E-20
   649.7850  1.108570E-20
   649.9990  1.134735E-20
   650.2130  1.236853E-20
   650.4269  1.341451E-20
   650.6407  1.342798E-20
   650.8546  1.285271E-20
   651.0684  1.318110E-20
   651.2822  1.351946E-20
   651.4959  1.336023E-20
   651.7096  1.276833E-20
   651.9233  1.166063E-20
   652.1369  1.108970E-20
   652.3506  1.079891E-20
   652.5641  1.074897E-20
   652.7777  1.068883E-20
   652.9912  1.006801E-20
   653.2047  9.509934E-21
   653.4181  9.015549E-21
   653.6315  8.559042E-21
   653.8449  8.272929E-21
   654.0582  8.247846E-21
   654.2716  8.288091E-21
   654.4848  8.457358E-21
   654.6981  9.023835E-21
   654.9113  9.407799E-21
   655.1245  9.252004E-21
   655.3376  9.045648E-21
   655.5508  8.815168E-21
   655.7639  9.275565E-21
   655.9769  1.010826E-20
   656.1899  9.592961E-21
   656.4029  8.377995E-21
   656.6159  7.522136E-21
   656.8288  7.533578E-21
   657.0417  7.527885E-21
   657.2546  6.833570E-21
   657.4674  6.386026E-21
   657.6802  6.502027E-21
   657.8930  6.507945E-21
   658.1058  6.322332E-21
   658.3185  6.229047E-21
   658.5311  6.327011E-21
   658.7438  6.522375E-21
   658.9564  6.665375E-21
   659.1690  6.802231E-21
   659.3816  6.878663E-21
   659.5941  6.849184E-21
   659.8066  6.926010E-21
   660.0191  6.830978E-21
   660.2315  6.352375E-21
   660.4439  5.512890E-21
   660.6563  5.039671E-21
   660.8686  5.016268E-21
   661.0809  4.878741E-21
   661.2932  4.653892E-21
   661.5055  4.207965E-21
   661.7177  3.862628E-21
   661.9299  3.841209E-21
   662.1421  3.752872E-21
   662.3542  3.510865E-21
   662.5663  3.365498E-21
   662.7784  3.288863E-21
   662.9905  3.379246E-21
   663.2025  3.395964E-21
   663.4145  3.336334E-21
   663.6265  3.300215E-21
   663.8384  3.284743E-21
   664.0503  3.394290E-21
   664.2622  3.394408E-21
   664.4740  3.645912E-21
   664.6858  4.188631E-21
   664.8976  4.658858E-21
   665.1094  5.074296E-21
   665.3211  5.308547E-21
   665.5328  5.308457E-21
   665.7445  5.570141E-21
   665.9562  6.175612E-21
   666.1678  7.059316E-21
   666.3794  7.386576E-21
   666.5910  7.707523E-21
   666.8025  8.262558E-21
   667.0140  8.220734E-21
   667.2255  7.918162E-21
   667.4370  7.882934E-21
   667.6484  8.531254E-21
   667.8598  9.550405E-21
   668.0712  1.042870E-20
   668.2825  1.071926E-20
   668.4939  9.815662E-21
   668.7052  8.978235E-21
   668.9164  9.439758E-21
   669.1277  1.017578E-20
   669.3389  9.983914E-21
   669.5501  9.644366E-21
   669.7612  1.076396E-20
   669.9724  1.164552E-20
   670.1835  1.154328E-20
   670.3946  1.094540E-20
   670.6056  9.625258E-21
   670.8167  8.279862E-21
   671.0277  7.789817E-21
   671.2386  8.421058E-21
   671.4496  8.890360E-21
   671.6605  8.702042E-21
   671.8714  8.818494E-21
   672.0823  9.141076E-21
   672.2932  9.201894E-21
   672.5040  9.743965E-21
   672.7148  1.013323E-20
   672.9256  9.713020E-21
   673.1363  1.012353E-20
   673.3470  1.151661E-20
   673.5577  1.326942E-20
   673.7684  1.298540E-20
   673.9791  1.121737E-20
   674.1897  1.069615E-20
   674.4003  1.064875E-20
   674.6109  1.017917E-20
   674.8214  9.702874E-21
   675.0319  9.355999E-21
   675.2424  9.673451E-21
   675.4529  1.010330E-20
   675.6634  1.044335E-20
   675.8738  1.055445E-20
   676.0842  1.013255E-20
   676.2946  9.652990E-21
   676.5049  9.715162E-21
   676.7153  1.026185E-20
   676.9256  1.033722E-20
   677.1359  9.628471E-21
   677.3461  9.697012E-21
   677.5564  9.828232E-21
   677.7666  8.824525E-21
   677.9768  7.408164E-21
   678.1870  6.718922E-21
   678.3971  6.488499E-21
   678.6072  6.161802E-21
   678.8173  6.118908E-21
   679.0274  6.283045E-21
   679.2375  6.439686E-21
   679.4475  6.801836E-21
   679.6575  7.183884E-21
   679.8675  7.296616E-21
   680.0775  6.967778E-21
   680.2874  6.658724E-21
   680.4973  6.398877E-21
   680.7072  6.198722E-21
   680.9171  6.170539E-21
   681.1270  6.125446E-21
   681.3368  5.827496E-21
   681.5466  5.256713E-21
   681.7564  4.976101E-21
   681.9662  4.793104E-21
   682.1759  4.487376E-21
   682.3857  4.392444E-21
   682.5954  4.398064E-21
   682.8050  4.521900E-21
   683.0147  4.880843E-21
   683.2243  5.289715E-21
   683.4340  5.439812E-21
   683.6436  5.224201E-21
   683.8531  4.759454E-21
   684.0627  4.462552E-21
   684.2722  4.293990E-21
   684.4818  4.232625E-21
   684.6912  4.534948E-21
   684.9007  4.728357E-21
   685.1102  4.607238E-21
   685.3196  4.633217E-21
   685.5290  5.401912E-21
   685.7384  6.085257E-21
   685.9478  5.621564E-21
   686.1571  5.322785E-21
   686.3665  5.464574E-21
   686.5758  5.569724E-21
   686.7851  5.196204E-21
   686.9944  4.526014E-21
   687.2036  3.863214E-21
   687.4128  3.725467E-21
   687.6221  3.755465E-21
   687.8313  3.422320E-21
   688.0404  3.147244E-21
   688.2496  2.978715E-21
   688.4587  2.863509E-21
   688.6679  2.950820E-21
   688.8770  2.936785E-21
   689.0860  2.991511E-21
   689.2951  3.055959E-21
   689.5042  2.928843E-21
   689.7132  2.943645E-21
   689.9222  2.966569E-21
   690.1312  2.944794E-21
   690.3402  2.908264E-21
   690.5491  2.816771E-21
   690.7580  2.763296E-21
   690.9670  2.798367E-21
   691.1759  2.883993E-21
   691.3847  2.803282E-21
   691.5936  2.811878E-21
   691.8025  2.814815E-21
   692.0113  2.741240E-21
   692.2201  2.633018E-21
   692.4289  2.384941E-21
   692.6377  2.231721E-21
   692.8464  2.279762E-21
   693.0552  2.350473E-21
   693.2639  2.337689E-21
   693.4726  2.321845E-21
   693.6813  2.261116E-21
   693.8900  2.159573E-21
   694.0986  2.214175E-21
   694.3073  2.343653E-21
   694.5159  2.396045E-21
   694.7245  2.431273E-21
   694.9331  2.465561E-21
   695.1417  2.402668E-21
   695.3502  2.526120E-21
   695.5588  2.616864E-21
   695.7673  2.683026E-21
   695.9758  2.761053E-21
   696.1843  2.613442E-21
   696.3928  2.478767E-21
   696.6013  2.725013E-21
   696.8097  2.774434E-21
   697.0181  2.498608E-21
   697.2266  2.342683E-21
   697.4350  2.097334E-21
   697.6434  1.808961E-21
   697.8517  1.702452E-21
   698.0601  1.671811E-21
   698.2684  1.727630E-21
   698.4768  1.676270E-21
   698.6851  1.593243E-21
   698.8934  1.550501E-21
   699.1016  1.583238E-21
   699.3099  1.709954E-21
   699.5182  1.830594E-21
   699.7264  2.087166E-21
   699.9346  2.451689E-21
   700.1428  2.548362E-21
   700.3510  2.471068E-21
   700.5592  2.427271E-21
   700.7674  2.500400E-21
   700.9755  2.485480E-21
   701.1837  2.375854E-21
   701.3918  2.216880E-21
   701.5999  2.203832E-21
   701.8080  2.334031E-21
   702.0161  2.560250E-21
   702.2242  2.699868E-21
   702.4323  2.798948E-21
   702.6403  2.887876E-21
   702.8483  2.867032E-21
   703.0564  2.841899E-21
   703.2644  2.886191E-21
   703.4724  3.232407E-21
   703.6803  3.557655E-21
   703.8883  3.904254E-21
   704.0963  4.322122E-21
   704.3042  4.391954E-21
   704.5121  4.295687E-21
   704.7201  4.426360E-21
   704.9280  4.568909E-21
   705.1359  4.983440E-21
   705.3438  5.556636E-21
   705.5516  6.245900E-21
   705.7595  6.467812E-21
   705.9673  5.828567E-21
   706.1752  5.139574E-21
   706.3830  4.681562E-21
   706.5908  4.722855E-21
   706.7986  4.961226E-21
   707.0064  5.362811E-21
   707.2142  6.398370E-21
   707.4220  7.306987E-21
   707.6297  6.965523E-21
   707.8375  6.925165E-21
   708.0452  6.514371E-21
   708.2529  4.865715E-21
   708.4606  3.799707E-21
   708.6683  3.485681E-21
   708.8760  3.254192E-21
   709.0837  3.265674E-21
   709.2914  3.456157E-21
   709.4990  3.773147E-21
   709.7067  3.907878E-21
   709.9143  3.862183E-21
   710.1220  3.944420E-21
   710.3296  4.171518E-21
   710.5372  4.732144E-21
   710.7448  5.421296E-21
   710.9524  6.083454E-21
   711.1600  5.598087E-21
   711.3675  4.528731E-21
   711.5751  4.265007E-21
   711.7827  4.352515E-21
   711.9902  4.786357E-21
   712.1977  4.980859E-21
   712.4053  4.980053E-21
   712.6128  4.730307E-21
   712.8203  4.287418E-21
   713.0278  4.182904E-21
   713.2353  4.092223E-21
   713.4428  4.294278E-21
   713.6502  4.830740E-21
   713.8577  4.809552E-21
   714.0652  4.228978E-21
   714.2726  3.610881E-21
   714.4800  3.399898E-21
   714.6875  3.588498E-21
   714.8949  3.659959E-21
   715.1023  3.351130E-21
   715.3097  2.818496E-21
   715.5171  2.404257E-21
   715.7245  2.189588E-21
   715.9319  1.987206E-21
   716.1393  1.992854E-21
   716.3467  2.177982E-21
   716.5540  2.215753E-21
   716.7614  2.050635E-21
   716.9687  1.890545E-21
   717.1761  1.758733E-21
   717.3834  1.682989E-21
   717.5907  1.617937E-21
   717.7980  1.638025E-21
   718.0054  1.651142E-21
   718.2127  1.638522E-21
   718.4200  1.602645E-21
   718.6273  1.490307E-21
   718.8346  1.515492E-21
   719.0418  1.571869E-21
   719.2491  1.389880E-21
   719.4564  1.255656E-21
   719.6636  1.226617E-21
   719.8709  1.185120E-21
   720.0782  1.288963E-21
   720.2854  1.440768E-21
   720.4926  1.566993E-21
   720.6999  1.589974E-21
   720.9071  1.707265E-21
   721.1143  1.672922E-21
   721.3216  1.543669E-21
   721.5288  1.611550E-21
   721.7360  1.794091E-21
   721.9432  1.946939E-21
   722.1504  2.031702E-21
   722.3576  1.953426E-21
   722.5648  1.938765E-21
   722.7719  1.933963E-21
   722.9791  1.891249E-21
   723.1863  1.998953E-21
   723.3935  2.185682E-21
   723.6006  2.212320E-21
   723.8078  2.033398E-21
   724.0150  1.875551E-21
   724.2221  1.889552E-21
   724.4293  1.820859E-21
   724.6364  1.623714E-21
   724.8436  1.501062E-21
   725.0507  1.347651E-21
   725.2578  1.207926E-21
   725.4650  1.141871E-21
   725.6721  1.077743E-21
   725.8792  1.007523E-21
   726.0863  9.919714E-22
   726.2935  9.301944E-22
   726.5006  8.478270E-22
   726.7077  8.827738E-22
   726.9148  8.475057E-22
   727.1219  8.028301E-22
   727.3290  7.801767E-22
   727.5361  7.782715E-22
   727.7432  7.577318E-22
   727.9503  8.063361E-22
   728.1574  8.655935E-22
   728.3645  8.644831E-22
   728.5716  8.470829E-22
   728.7787  8.289613E-22
   728.9858  7.822397E-22
   729.1928  7.154349E-22
   729.3999  7.117260E-22
   729.6070  7.159647E-22
   729.8141  7.172780E-22
   730.0212  7.276381E-22
   730.2282  7.649297E-22
   730.4353  7.345091E-22
   730.6424  7.069574E-22
   730.8495  6.962197E-22
   731.0565  6.768750E-22
   731.2636  7.192621E-22
   731.4707  7.356026E-22
   731.6777  7.506635E-22
   731.8848  8.038785E-22
   732.0919  8.584068E-22
   732.2989  8.355561E-22
   732.5060  8.041660E-22
   732.7131  7.941892E-22
   732.9201  7.345767E-22
   733.1272  7.686724E-22
   733.3343  8.121530E-22
   733.5413  8.440561E-22
   733.7484  9.820848E-22
   733.9555  1.038558E-21
   734.1625  1.111895E-21
   734.3696  1.266958E-21
   734.5767  1.380135E-21
   734.7837  1.413830E-21
   734.9908  1.483352E-21
   735.1979  1.507973E-21
   735.4049  1.402845E-21
   735.6120  1.299379E-21
   735.8191  1.312456E-21
   736.0262  1.296308E-21
   736.2332  1.222074E-21
   736.4403  1.161210E-21
   736.6474  1.120333E-21
   736.8545  1.177201E-21
   737.0615  1.261953E-21
   737.2686  1.285570E-21
   737.4757  1.253847E-21
   737.6828  1.176558E-21
   737.8899  1.081999E-21
   738.0970  1.040440E-21
   738.3040  1.062959E-21
   738.5111  1.140462E-21
   738.7182  1.314739E-21
   738.9253  1.473837E-21
   739.1324  1.530074E-21
   739.3395  1.424038E-21
   739.5466  1.197216E-21
   739.7537  1.148528E-21
   739.9609  1.168250E-21
   740.1680  1.260408E-21
   740.3751  1.396785E-21
   740.5822  1.401593E-21
   740.7893  1.293399E-21
   740.9964  1.284933E-21
   741.2036  1.189748E-21
   741.4107  1.076052E-21
   741.6178  1.009202E-21
   741.8250  9.548995E-22
   742.0321  9.265250E-22
   742.2393  9.413041E-22
   742.4464  1.051364E-21
   742.6536  1.196827E-21
   742.8607  1.293760E-21
   743.0679  1.428102E-21
   743.2751  1.534200E-21
   743.4822  1.591738E-21
   743.6894  1.697119E-21
   743.8966  1.761168E-21
   744.1038  1.928101E-21
   744.3110  2.099572E-21
   744.5182  2.213791E-21
   744.7254  2.482346E-21
   744.9326  2.899685E-21
   745.1398  3.047606E-21
   745.3470  3.109298E-21
   745.5542  3.140598E-21
   745.7614  3.110905E-21
   745.9687  3.301230E-21
   746.1759  3.624386E-21
   746.3831  3.656830E-21
   746.5904  3.640389E-21
   746.7976  3.255066E-21
   747.0049  2.432699E-21
   747.2122  1.859543E-21
   747.4194  1.555483E-21
   747.6267  1.438231E-21
   747.8340  1.353868E-21
   748.0413  1.237715E-21
   748.2486  1.079344E-21
   748.4559  1.019382E-21
   748.6632  9.452835E-22
   748.8705  9.123941E-22
   749.0778  9.791819E-22
   749.2852  1.029691E-21
   749.4925  1.064892E-21
   749.6998  1.120655E-21
   749.9072  1.152011E-21
   750.1145  1.114894E-21
   750.3219  1.112126E-21
   750.5293  1.104585E-21
   750.7367  1.161035E-21
   750.9441  1.289910E-21
   751.1514  1.377085E-21
   751.3589  1.398623E-21
   751.5663  1.368777E-21
   751.7737  1.328154E-21
   751.9811  1.383838E-21
   752.1885  1.392220E-21
   752.3960  1.370164E-21
   752.6034  1.425509E-21
   752.8109  1.425673E-21
   753.0184  1.351089E-21
   753.2259  1.240906E-21
   753.4333  1.263655E-21
   753.6408  1.299239E-21
   753.8483  1.389756E-21
   754.0559  1.510560E-21
   754.2634  1.537559E-21
   754.4709  1.476859E-21
   754.6785  1.378568E-21
   754.8860  1.248966E-21
   755.0936  1.300050E-21
   755.3011  1.406227E-21
   755.5087  1.425267E-21
   755.7163  1.456544E-21
   755.9239  1.510949E-21
   756.1315  1.307941E-21
   756.3391  1.165031E-21
   756.5468  1.144334E-21
   756.7544  1.062739E-21
   756.9620  9.845085E-22
   757.1697  9.808729E-22
   757.3774  1.008813E-21
   757.5851  1.109494E-21
   757.7928  9.856471E-22
   758.0005  8.169103E-22
   758.2082  7.207276E-22
   758.4159  6.803189E-22
   758.6236  6.380840E-22
   758.8314  5.826764E-22
   759.0391  5.902745E-22
   759.2469  5.982897E-22
   759.4547  5.438431E-22
   759.6625  5.096133E-22
   759.8703  4.192419E-22
   760.0781  4.337803E-22
   760.2859  4.440491E-22
   760.4938  3.987625E-22
   760.7016  3.555146E-22
   760.9095  3.676767E-22
   761.1174  3.240281E-22
   761.3252  3.169655E-22
   761.5331  3.470524E-22
   761.7411  3.957819E-22
   761.9490  4.059452E-22
   762.1569  4.237579E-22
   762.3649  4.225359E-22
   762.5728  4.284211E-22
   762.7808  4.310545E-22
   762.9888  4.561497E-22
   763.1968  4.991963E-22
   763.4048  5.202253E-22
   763.6128  5.257384E-22
   763.8209  4.838642E-22
   764.0289  5.289124E-22
   764.2370  6.064571E-22
   764.4451  6.313877E-22
   764.6532  6.861472E-22
   764.8613  7.272435E-22
   765.0694  7.384828E-22
   765.2776  7.093304E-22
   765.4857  6.569271E-22
   765.6939  6.320528E-22
   765.9021  6.635501E-22
   766.1103  6.812715E-22
   766.3185  5.982390E-22
   766.5267  5.840855E-22
   766.7349  6.114286E-22
   766.9432  5.949134E-22
   767.1515  5.998003E-22
   767.3597  5.428584E-22
   767.5680  5.625859E-22
   767.7764  5.334718E-22
   767.9847  5.001663E-22
   768.1930  4.517340E-22
   768.4014  4.418435E-22
   768.6098  4.399924E-22
   768.8182  3.903245E-22
   769.0266  3.664028E-22
   769.2350  3.518621E-22
   769.4434  3.515600E-22
   769.6519  2.695387E-22
   769.8604  2.212715E-22
   770.0688  2.316648E-22
   770.2773  2.604328E-22
   770.4859  2.184368E-22
   770.6944  2.291819E-22
   770.9030  2.228091E-22
   771.1115  2.003953E-22
   771.3201  2.341804E-22
   771.5287  2.321478E-22
   771.7373  1.907612E-22
   771.9460  2.545820E-22
   772.1546  2.831296E-22
   772.3633  2.343450E-22
   772.5720  2.282890E-22
   772.7807  2.685162E-22
   772.9894  2.308971E-22
   773.1982  1.857993E-22
   773.4069  2.426725E-22
   773.6157  2.281267E-22
   773.8245  2.243085E-22
   774.0333  2.314371E-22
   774.2421  2.580017E-22
   774.4510  2.797550E-22
   774.6598  2.822374E-22
   774.8687  2.805278E-22
   775.0776  2.918415E-22
   775.2866  2.975131E-22
   775.4955  2.874957E-22
   775.7045  2.948069E-22
   775.9134  3.246386E-22
   776.1224  3.456523E-22
   776.3315  3.342585E-22
   776.5405  3.408499E-22
   776.7495  3.545993E-22
   776.9586  3.677815E-22
   777.2519  2.510890E-22
   777.5526  2.932907E-22
   777.8532  3.137870E-22
   778.1538  3.044613E-22
   778.4543  3.349360E-22
   778.7547  3.963342E-22
   779.0551  3.518807E-22
   779.3554  3.573150E-22
   779.6555  3.758498E-22
   779.9557  3.610999E-22
   780.2557  3.294466E-22
   780.5556  3.881448E-22
   780.8555  3.775030E-22
   781.1553  3.944606E-22
   781.4550  3.729948E-22
   781.7547  3.249734E-22
   782.0543  3.689184E-22
   782.3538  3.742523E-22
   782.6532  3.908538E-22
   782.9525  3.867695E-22
   783.2518  4.672374E-22
   783.5510  4.466323E-22
   783.8501  4.699638E-22
   784.1491  4.288590E-22
   784.4481  4.300292E-22
   784.7470  4.770090E-22
   785.0458  5.788717E-22
   785.3445  6.107916E-22
   785.6432  5.977824E-22
   785.9417  5.329200E-22
   786.2402  5.118837E-22
   786.5387  6.082270E-22
   786.8370  5.692162E-22
   787.1353  5.076049E-22
   787.4335  4.994809E-22
   787.7317  5.049338E-22
   788.0297  6.203908E-22
   788.3277  6.990775E-22
   788.6256  7.983772E-22
   788.9235  8.604247E-22
   789.2212  9.144514E-22
   789.5189  9.555139E-22
   789.8165  9.795427E-22
   790.1141  1.099162E-21
   790.4116  1.236588E-21
   790.7089  1.301037E-21
   791.0063  1.153200E-21
   791.3035  1.042819E-21
   791.6007  9.209391E-22
   791.8978  7.465488E-22
   792.1948  6.873703E-22
   792.4918  6.975161E-22
   792.7887  6.333493E-22
   793.0855  5.789957E-22
   793.3822  4.990232E-22
   793.6789  4.356691E-22
   793.9755  4.331141E-22
   794.2720  4.474169E-22
   794.5685  3.790491E-22
   794.8649  3.185432E-22
   795.1612  2.696238E-22
   795.4574  2.504611E-22
   795.7536  2.465961E-22
   796.0497  2.447073E-22
   796.3457  2.440940E-22
   796.6417  2.295618E-22
   796.9376  2.282586E-22
   797.2334  2.427553E-22
   797.5292  2.408051E-22
   797.8248  2.663506E-22
   798.1204  2.874315E-22
   798.4160  3.156420E-22
   798.7114  3.121693E-22
   799.0068  3.272494E-22
   799.3022  3.233010E-22
   799.5974  3.008725E-22
   799.8926  3.019429E-22
   800.1877  3.131371E-22
   800.4828  3.300435E-22
   800.7778  3.406126E-22
   801.0727  3.473613E-22
   801.3675  3.889745E-22
   801.6623  4.018277E-22
   801.9570  4.102521E-22
   802.2516  4.388093E-22
   802.5462  4.346873E-22
   802.8407  4.210625E-22
   803.1351  4.335301E-22
   803.4295  3.885901E-22
   803.7238  3.826621E-22
   804.0180  3.587997E-22
   804.3122  3.251847E-22
   804.6063  2.163062E-22
   804.9003  1.603496E-22
   805.1943  1.335471E-22
   805.4882  1.230320E-22
   805.7820  1.414371E-22
   806.0758  1.330967E-22
   806.3694  1.242067E-22
   806.6631  1.556926E-22
   806.9566  1.069367E-22
   807.2501  1.219036E-22
   807.5436  1.482067E-22
   807.8369  1.213202E-22
   808.1302  1.199978E-22
   808.4234  1.382570E-22
   808.7166  1.130834E-22
   809.0097  1.403842E-22
   809.3027  1.372424E-22
   809.5957  1.312648E-22
   809.8886  1.358423E-22
   810.1814  1.245939E-22
   810.4742  1.222480E-22
   810.7669  1.629503E-22
   811.0596  1.544019E-22
   811.3521  1.549199E-22
   811.6447  1.125987E-22
   811.9371  1.313358E-22
   812.2295  1.256502E-22
   812.5218  1.139143E-22
   812.8141  1.547564E-22
   813.1063  2.017148E-22
   813.3984  2.131046E-22
   813.6905  1.905769E-22
   813.9825  1.954046E-22
   814.2744  1.904388E-22
   814.5663  2.091686E-22
   814.8581  1.969147E-22
   815.1498  1.698089E-22
   815.4415  1.597972E-22
   815.7332  1.820995E-22
   816.0247  1.787778E-22
   816.3162  1.264094E-22
   816.6077  1.285897E-22
   816.8990  1.082038E-22
   817.1904  1.087664E-22
   817.4816  1.053111E-22
   817.7728  1.154356E-22
   818.0639  8.770527E-23
   818.3550  9.382716E-23
   818.6460  7.746697E-23
   818.9369  7.952602E-23
   819.2278  7.194368E-23
   819.5186  9.468449E-23
   819.8094  7.503535E-23
   820.1001  7.477832E-23
   820.3907  7.726293E-23
   820.6813  1.016569E-22
   820.9718  9.427978E-23
   821.2623  9.888769E-23
   821.5527  1.193496E-22
   821.8430  7.273450E-23
   822.1333  1.027984E-22
   822.4235  9.477354E-23
   822.7137  7.480594E-23
   823.0038  5.337305E-23
   823.2938  1.333024E-22
   823.5838  1.232253E-22
   823.8737  1.442092E-22
   824.1636  1.613241E-22
   824.4534  1.667302E-22
   824.7431  1.899061E-22
   825.0328  1.611049E-22
   825.3225  1.413098E-22
   825.6120  1.423497E-22
   825.9015  1.469435E-22
   826.1910  1.484677E-22
   826.4804  1.451979E-22
   826.7697  1.881847E-22
   827.0590  1.653498E-22
   827.3482  1.502477E-22
   827.6374  1.671084E-22
   827.9265  1.399953E-22
   828.2155  1.348959E-22
   828.5045  1.411897E-22
   828.7935  1.519060E-22
   829.0823  1.574293E-22
   829.3712  1.559604E-22
   829.6599  1.649456E-22
   829.9486  1.510650E-22
   830.2373  1.563470E-22
   830.5259  1.482495E-22
   830.8144  1.448918E-22
   831.1029  1.789396E-22
   831.3913  1.313708E-22
   831.6797  1.429461E-22
   831.9680  1.490973E-22
   832.2563  1.381612E-22
   832.5445  1.779256E-22
   832.8326  1.799023E-22
   833.1207  1.643713E-22
   833.4088  2.152730E-22
   833.6968  2.335226E-22
   833.9847  2.671307E-22
   834.2726  3.130441E-22
   834.5604  3.439151E-22
   834.8481  3.289472E-22
   835.1359  3.122826E-22
   835.4235  3.117680E-22
   835.7111  3.305632E-22
   835.9987  4.400848E-22
   836.2862  4.835023E-22
   836.5736  3.436970E-22
   836.8610  1.677453E-22
   837.1483  1.444956E-22
   837.4356  1.240601E-22
   837.7228  1.292638E-22
   838.0100  1.471825E-22
   838.2972  1.783156E-22
   838.5842  1.805167E-22
   838.8712  1.588316E-22
   839.1582  1.576542E-22
   839.4451  1.916501E-22
   839.7320  2.093552E-22
   840.0188  1.838214E-22
   840.3055  2.017509E-22
   840.5923  2.090508E-22
   840.8789  2.142004E-22
   841.1655  1.930553E-22
   841.4521  2.343591E-22
   841.7386  2.087876E-22
   842.0250  2.142646E-22
   842.3114  1.913846E-22
   842.5978  1.987714E-22
   842.8840  2.322561E-22
   843.1703  2.161721E-22
   843.4565  2.629219E-22
   843.7426  2.602558E-22
   844.0287  1.901925E-22
   844.3148  2.099865E-22
   844.6008  2.143475E-22
   844.8867  2.436899E-22
   845.1726  2.176286E-22
   845.4584  1.701882E-22
   845.7442  1.557524E-22
   846.0300  1.766218E-22
   846.3157  1.499371E-22
   846.6013  8.180489E-23
   846.8869  7.585040E-23
   847.1725  8.664333E-23
   847.4580  8.845324E-23
   847.7434  3.081200E-23
   848.0288  5.396658E-24
   848.3142  5.438876E-23
   848.5995  7.391874E-23
   848.8847  7.441251E-23
   849.1700  1.255211E-22
   849.4551  7.463741E-23
   849.7402  1.154406E-22
   850.0253  8.438757E-23
   850.3103  8.869843E-23
   850.5953  6.841349E-23
   850.8802  3.215897E-23
   851.1651  5.324696E-23
   851.4499  8.691163E-23
   851.7347  4.913186E-23
   852.0194  4.732826E-23
   852.3041  6.848789E-23
   852.5888  3.534054E-23
   852.8734  5.251916E-23
   853.1579  8.070745E-23
   853.4424  7.375303E-23
   853.7269  5.723840E-23
   854.0113  6.604894E-23
   854.2957  9.022087E-23
   854.5800  6.761197E-23
   854.8643  1.344066E-22
   855.1485  1.268931E-22
   855.4327  1.387750E-22
   855.7168  1.277780E-22
   856.0009  1.160973E-22
   856.2850  7.945556E-23
   856.5690  5.361520E-23
   856.8529  1.084299E-22
   857.1369  1.091581E-22
   857.4207  8.977558E-23
   857.7046  9.511625E-23
   857.9884  1.109968E-22
   858.2721  5.957194E-23
   858.5558  5.192806E-23
   858.8394  2.720115E-23
   859.1231  5.448335E-23
   859.4066  1.120474E-22
   859.6901  3.550908E-23
   859.9736  7.116753E-23
   860.2571  1.090984E-22
   860.5405  6.779290E-23
   860.8238  8.621101E-23
   861.1071  4.206178E-23
   861.3904  2.843708E-23
   861.6736  5.924671E-23
   861.9568  1.907708E-23
   862.2399  4.039222E-23
   862.5230  4.860873E-23
   862.8061  8.110257E-23
   863.0891  7.149727E-23
   863.3721  8.136580E-23
   863.6550  9.851511E-23
   863.9379  8.739694E-23
   864.2207  9.312033E-23
   864.5036  7.144203E-23
   864.7863  3.727592E-23
   865.0690  5.479381E-23
   865.3517  6.666389E-23
   865.6344  6.894333E-23
   865.9170  6.282538E-23
   866.1995  3.495895E-23
   866.4821  4.598180E-23
   866.7646  4.287074E-23
   867.0470  8.082807E-23
   867.3294  9.164186E-23
   867.6118  5.834148E-23
   867.8941  5.429029E-23
   868.1764  2.230780E-23
   868.4586  6.481904E-23
   868.7408  7.825384E-23
   869.0230  7.695179E-23
   869.3051  6.779967E-23
   869.5872  4.070595E-23
   869.8693  5.417238E-23
   870.1513  3.697346E-23
   870.4333  5.275460E-23
   870.7152  7.977346E-23
   870.9971  9.582759E-23
   871.2790  8.910483E-23
   871.5608  4.499128E-23
   871.8426  4.128483E-23
   872.1243  4.896349E-23
   872.4060  5.509384E-23
   872.6877  5.168585E-23
   872.9693  5.221473E-23
   873.2509  6.424523E-23
   873.5325  8.105748E-23
   873.8140  8.021706E-23
   874.0955  2.215302E-23
   874.3770  4.132096E-23
   874.6584  2.656540E-23
   874.9398  2.746065E-23
   875.2211  6.152333E-23
   875.5024  7.232923E-23
   875.7837  2.891828E-23
   876.0649  4.662719E-23
   876.3461  2.333011E-23
   876.6273 -1.151154E-24
   876.9084  4.915300E-23
   877.1895  7.461937E-23
   877.4706  6.778501E-23
   877.7516  7.541300E-23
   878.0326  7.743203E-23
   878.3135  8.581081E-23
   878.5945  5.826764E-23
   878.8753  2.397127E-23
   879.1562  2.571551E-23
   879.4370  2.230932E-23
   879.7178  3.252535E-23
   879.9985  7.681877E-23
   880.2793  1.058466E-22
   880.5599  9.696167E-23
   880.8406  7.084849E-23
   881.1212  6.655793E-23
   881.4018  7.773866E-23
   881.6823  5.804837E-23
   881.9628  7.417521E-23
   882.2433  1.248492E-22
   882.5238  1.345199E-22
   882.8042  7.753518E-23
   883.0846  1.168194E-22
   883.3649  8.046056E-23
   883.6452  8.128238E-23
   883.9255  1.311526E-22
   884.2058  1.254315E-22
   884.4860  8.601373E-23
   884.7662  9.391847E-23
   885.0464  8.472351E-23
   885.3265  7.832204E-23
   885.6066  1.018909E-22
   885.8867  8.032416E-23
   886.1667  1.070833E-22
   886.4467  7.329477E-23
   886.7267  9.106242E-23
   887.0066  7.544569E-23
   887.2865  6.961634E-23
   887.5664  1.688433E-23
   887.8463  5.585602E-23
   888.1261  7.111285E-23
   888.4059  6.804598E-23
   888.6856  7.293798E-23
   888.9654  7.515034E-23
   889.2451  1.120897E-22
   889.5247  1.046393E-22
   889.8044  8.576290E-23
   890.0840  8.439659E-23
   890.0840  1.001538E-22
   890.3636  1.106358E-22
   890.6431  1.044782E-22
   890.9227  9.357566E-23
   891.2022  9.358931E-23
   891.4816  1.068113E-22
   891.7611  1.273695E-22
   892.0405  1.647252E-22
   892.3199  1.580430E-22
   892.5992  1.462091E-22
   892.8786  6.850354E-23
   893.1579  1.344250E-23
   893.4371  1.131630E-23
   893.7164  4.102931E-23
   893.9956  4.495968E-23
   894.2748  1.469096E-23
   894.5540  6.514567E-24
   894.8331  3.413713E-23
   895.1122  2.308893E-23
   895.3913  2.863276E-23
   895.6703  4.438313E-23
   895.9494  2.157215E-23
   896.2284  2.554228E-23
   896.5074  3.465875E-23
   896.7863  2.994699E-23
   897.0652  4.896235E-23
   897.3441  6.515489E-23
   897.6230  4.794868E-23
   897.9019  5.171859E-23
   898.1807  7.757051E-23
   898.4595  7.211963E-23
   898.7383  8.115008E-23
   899.0170  7.862771E-23
   899.2957  4.875062E-23
   899.5744  7.025017E-23
   899.8531  8.297602E-23
   900.1318  7.015389E-23
   900.4104  6.806532E-23
   900.6890  4.742414E-23
   900.9676  8.510222E-23
   901.2461  7.455643E-23
   901.5246  3.675124E-23
   901.8031  3.389020E-23
   902.0816  7.206172E-23
   902.3601  6.105557E-23
   902.6385  5.119221E-23
   902.9169  4.082754E-23
   903.1953  7.440002E-23
   903.4737  5.477620E-23
   903.7520  5.261164E-23
   904.0304  5.483965E-23
   904.3087  5.342538E-23
   904.5869  6.397080E-23
   904.8652  8.782710E-23
   905.1434  5.665968E-23
   905.4216  3.950770E-23
   905.6998  1.278793E-23
   905.9780  2.901909E-23
   906.2561  5.270607E-23
   906.5342  3.001999E-23
   906.8123  1.196216E-23
   907.0904  1.255351E-23
   907.3685  4.296738E-23
   907.6465  4.939984E-23
   907.9245  4.191756E-23
   908.2025  5.773864E-23
   908.4805  3.238921E-23
   908.7585  1.313592E-23
   909.0364  3.811445E-23
   909.3143  3.840218E-23
   909.5922  2.425904E-23
   909.8701  3.159554E-23
   910.1480  4.376084E-23
   910.4258  5.187942E-23
   910.7036  6.569640E-23
   910.9814  5.921341E-23
   911.2592  4.340192E-23
   911.5370  3.382410E-23
   911.8147  2.154872E-23
   912.0924  3.965193E-23
   912.3701  4.061359E-23
   912.6478  4.440563E-23
   912.9255  3.114639E-23
   913.2031  5.100740E-23
   913.4807  4.546689E-23
   913.7584  5.411776E-23
   914.0360  4.296185E-23
   914.3135  2.093108E-23
   914.5911  1.723067E-23
   914.8686 -8.975411E-24
   915.1462  1.970645E-23
   915.4237  3.525552E-23
   915.7012  5.342612E-23
   915.9786  3.393107E-23
   916.2561  6.204711E-23
   916.5335  7.557637E-23
   916.8110  5.530333E-23
   917.0884  2.543664E-23
   917.3658  2.390134E-23
   917.6431  1.719540E-23
   917.9205  6.504091E-24
   918.1978 -1.822652E-23
   918.4752  3.334522E-23
   918.7525  3.910157E-23
   919.0298  2.993430E-23
   919.3070  3.236752E-23
   919.5843  3.296329E-23
   919.8616  4.457900E-23
   920.1388  1.853191E-23
   920.4160 -1.109180E-25
   920.6932 -9.650933E-24
   920.9704  5.443979E-24
   921.2476 -1.518411E-23
   921.5248  2.726726E-24
   921.8019 -9.379883E-25
   922.0790  3.114543E-25
   922.3562  6.459199E-24
   922.6333  1.721075E-23
   922.9104 -8.477576E-25
   923.1874  1.637841E-23
   923.4645  1.371395E-23
   923.7416  3.826311E-23
   924.0186  7.450146E-24
   924.2956 -8.207928E-24
   924.5727 -1.304607E-23
   924.8497  2.560503E-23
   925.1266  3.518278E-23
   925.4036  2.406520E-23
   925.6806  1.548540E-23
   925.9575 -1.799217E-23
   926.2345 -7.967458E-24
   926.5114 -1.036939E-23
   926.7883  1.021583E-23
   927.0652  6.182210E-24
   927.3421 -3.286277E-24
   927.6190  3.138070E-23
   927.8959  1.103326E-23
   928.1728  1.738958E-23
   928.4496  4.787491E-23
   928.7264  4.226763E-23
   929.0033  1.777845E-23
   929.2801 -2.202103E-24
   929.5569  9.433481E-24
   929.8337  3.053922E-23
   930.1105  4.028160E-23
   1613.000  4.028160E-23
   2200.000  4.028160E-23
   2300.000  4.028160E-23
