#******** NO2 Absorption Cross Sections at 223K ******************
#
#Version 1.0
#Date: August 2000
#
#K. Bogumil, J. Orphal, and J. P. Burrows
#University of Bremen - Institute of Environmental Physics
#P. O. Box 33 04 40
#D-28334 Bremen, Germany
#e-mail: Konstanze.Bogumil@iup.physik.uni-bremen.de
#
#1. column title:	wavelength (vacuum)
#1. column unit:		nm
#2. column title:	absorption cross-section 
#2. column unit:		cm2/molec
#
#Wavelength range:	233 - 769 nm
#Spectral Resolution:	0.22 nm below 311 nm, 
#	                0.21 nm between 311 nm and 402.3 nm, 
#			0.52 nm between 402.3 nm and 598.2 nm, 
#			0.47 nm between 598.2 nm and 769 nm (FWHM)
#Number of data points in file:	3146
#
#Experimental:
#
#Light source:   Xenon lamp
#Cell:	        Multiple reflection quartz cell (White optics)
#	        optical pathlength 985 cm
#Temperature:    223K
#Gas mixture:    NO2, N2
#Condition:      Flow measurement
#Total pressure: 100 mbar
#Spectrometer:   SCIAMACHY PFM Satellite Spectrometer 
#		 (Eight channel grating spectrometer)
#
#Note: Spectral Regions are cut and concatenated at 311 nm, 402.3 nm, 
#      and 598.2 nm. The data are scaled to the integrated absorption 
#      cross section using the absorption cross section measured by 
#      Vandaele et al., J. Quant. Spectrosc. Radiat. Transfer 59 
#      (3--5), 171--184 (1998)
#
   233.0807  2.651806E-19
   233.2139  2.390055E-19
   233.3470  2.142892E-19
   233.4800  1.861806E-19
   233.6129  1.563138E-19
   233.7458  1.465642E-19
   233.8786  1.315696E-19
   234.0113  1.137916E-19
   234.1439  1.207388E-19
   234.2765  1.081682E-19
   234.4089  1.091645E-19
   234.5413  1.022878E-19
   234.6736  1.061027E-19
   234.8058  1.069125E-19
   234.9380  1.148720E-19
   235.0700  1.290439E-19
   235.2020  1.569349E-19
   235.3339  1.857605E-19
   235.4657  1.969778E-19
   235.5975  2.032007E-19
   235.7292  2.003198E-19
   235.8607  1.722880E-19
   235.9922  1.529743E-19
   236.1237  1.402477E-19
   236.2550  1.328004E-19
   236.3863  1.314031E-19
   236.5175  1.408807E-19
   236.6486  1.528679E-19
   236.7796  1.481279E-19
   236.9106  1.496124E-19
   237.0415  1.473212E-19
   237.1722  1.522445E-19
   237.3030  1.579960E-19
   237.4336  1.691237E-19
   237.5642  1.763701E-19
   237.6946  1.782188E-19
   237.8250  1.727665E-19
   237.9554  1.572622E-19
   238.0856  1.413785E-19
   238.2158  1.272425E-19
   238.3458  1.094134E-19
   238.4759  9.219161E-20
   238.6058  7.867085E-20
   238.7356  6.859725E-20
   238.8654  6.485136E-20
   238.9951  7.210970E-20
   239.1247  8.626403E-20
   239.2542  1.078761E-19
   239.3837  1.177362E-19
   239.5131  1.143062E-19
   239.6424  1.016772E-19
   239.7716  8.559341E-20
   239.9007  7.419728E-20
   240.0298  6.281468E-20
   240.1588  5.272698E-20
   240.2877  4.661790E-20
   240.4165  4.084205E-20
   240.5453  3.709904E-20
   240.6740  3.371687E-20
   240.8026  3.185177E-20
   240.9311  2.627126E-20
   241.0596  2.426731E-20
   241.1879  2.073917E-20
   241.3162  1.869105E-20
   241.4444  1.733395E-20
   241.5726  2.018099E-20
   241.7006  2.313157E-20
   241.8286  3.025627E-20
   241.9565  4.901702E-20
   242.0844  8.721635E-20
   242.2121  1.324731E-19
   242.3398  1.603104E-19
   242.4674  1.529103E-19
   242.5949  1.296497E-19
   242.7224  1.013531E-19
   242.8497  8.045889E-20
   242.9770  6.868408E-20
   243.1043  6.320449E-20
   243.2314  6.303555E-20
   243.3585  5.818121E-20
   243.4855  5.010011E-20
   243.6124  4.178941E-20
   243.7392  3.633070E-20
   243.8660  2.771991E-20
   243.9927  2.420969E-20
   244.1193  2.177224E-20
   244.2459  1.977933E-20
   244.3723  1.947491E-20
   244.4987  1.946963E-20
   244.6250  2.328242E-20
   244.7513  3.442022E-20
   244.8775  4.747347E-20
   245.0036  4.875518E-20
   245.1296  4.196211E-20
   245.2555  3.212682E-20
   245.3814  2.443753E-20
   245.5072  2.067259E-20
   245.6329  1.764518E-20
   245.7586  1.634034E-20
   245.8842  2.057128E-20
   246.0097  3.524426E-20
   246.1351  4.461835E-20
   246.2605  3.895350E-20
   246.3857  2.872232E-20
   246.5109  2.466248E-20
   246.6361  1.896994E-20
   246.7612  1.368729E-20
   246.8862  1.204947E-20
   247.0111  9.812640E-21
   247.1359  9.175067E-21
   247.2607  8.913619E-21
   247.3854  1.050559E-20
   247.5100  1.009850E-20
   247.6346  8.297173E-21
   247.7591  6.848089E-21
   247.8835  7.087465E-21
   248.0079  8.297493E-21
   248.1321  8.090304E-21
   248.2563  6.898858E-21
   248.3805  7.432460E-21
   248.5045  6.976236E-21
   248.6285  7.463863E-21
   248.7524  8.248197E-21
   248.8763  9.655227E-21
   249.0001  1.132555E-20
   249.1238  2.741724E-20
   249.2474  5.563003E-20
   249.3710  6.141277E-20
   249.4945  4.951607E-20
   249.6179  3.934507E-20
   249.7413  3.052140E-20
   249.8646  2.443073E-20
   249.9878  2.031503E-20
   250.1110  1.817976E-20
   250.2341  1.474037E-20
   250.3571  1.356317E-20
   250.4800  1.267184E-20
   250.6029  1.105666E-20
   250.7257  1.085323E-20
   250.8485  1.107162E-20
   250.9711  1.103281E-20
   251.0937  1.108034E-20
   251.2163  1.033585E-20
   251.3387  8.700028E-21
   251.4612  9.887785E-21
   251.5835  9.176507E-21
   251.7058  9.265817E-21
   251.8280  1.030937E-20
   251.9501  1.000118E-20
   252.0722  1.020405E-20
   252.1942  1.002231E-20
   252.3161  9.556554E-21
   252.4380  1.036498E-20
   252.5598  1.018829E-20
   252.6815  1.085067E-20
   252.8032  1.067069E-20
   252.9248  1.055321E-20
   253.0464  1.043685E-20
   253.1678  1.098615E-20
   253.2893  1.226322E-20
   253.4106  9.721569E-21
   253.5319  1.093742E-20
   253.6531  1.125416E-20
   253.7743  1.133763E-20
   253.8954  1.080089E-20
   254.0164  1.128153E-20
   254.1373  1.198104E-20
   254.2582  1.308781E-20
   254.3791  1.246104E-20
   254.4999  1.239502E-20
   254.6206  1.239950E-20
   254.7412  1.265887E-20
   254.8618  1.257796E-20
   254.9823  1.356165E-20
   255.1028  1.284725E-20
   255.2232  1.297026E-20
   255.3435  1.295793E-20
   255.4638  1.287422E-20
   255.5840  1.243640E-20
   255.7042  1.246425E-20
   255.8242  1.322970E-20
   255.9443  1.459120E-20
   256.0642  1.381782E-20
   256.1841  1.331021E-20
   256.3040  1.378581E-20
   256.4238  1.367745E-20
   256.5435  1.266503E-20
   256.6632  1.318977E-20
   256.7828  1.260109E-20
   256.9023  1.410607E-20
   257.0218  1.343809E-20
   257.1412  1.464562E-20
   257.2606  1.378525E-20
   257.3799  1.325635E-20
   257.4992  1.430054E-20
   257.6183  1.359478E-20
   257.7375  1.444643E-20
   257.8566  1.447516E-20
   257.9756  1.605769E-20
   258.0945  1.492555E-20
   258.2134  1.506632E-20
   258.3323  1.472916E-20
   258.4511  1.587283E-20
   258.5698  1.486169E-20
   258.6885  1.496740E-20
   258.8071  1.627872E-20
   258.9256  1.635835E-20
   259.0441  1.740062E-20
   259.1626  1.781043E-20
   259.2810  1.748136E-20
   259.3993  1.860990E-20
   259.5176  1.784620E-20
   259.6358  1.588323E-20
   259.7540  1.722728E-20
   259.8721  1.714789E-20
   259.9901  1.666837E-20
   260.1082  1.545429E-20
   260.2261  1.651680E-20
   260.3440  1.677753E-20
   260.4618  1.724768E-20
   260.5796  1.660499E-20
   260.6974  1.703737E-20
   260.8150  1.725769E-20
   260.9327  1.792295E-20
   261.0502  1.832204E-20
   261.1678  1.836878E-20
   261.2852  1.698968E-20
   261.4026  1.856316E-20
   261.5200  1.822513E-20
   261.6373  1.888367E-20
   261.7546  1.851803E-20
   261.8718  1.779995E-20
   261.9889  1.718318E-20
   262.1060  1.707299E-20
   262.2231  1.852771E-20
   262.3401  1.731267E-20
   262.4571  1.802290E-20
   262.5740  1.894457E-20
   262.6908  1.830484E-20
   262.8076  2.011264E-20
   262.9244  1.949972E-20
   263.0411  2.040290E-20
   263.1577  2.102255E-20
   263.2743  2.062209E-20
   263.3909  2.096725E-20
   263.5074  2.160698E-20
   263.6238  2.137490E-20
   263.7402  2.138915E-20
   263.8566  2.215052E-20
   263.9729  2.318895E-20
   264.0892  2.257763E-20
   264.2054  2.204969E-20
   264.3216  2.234547E-20
   264.4377  2.173903E-20
   264.5538  2.230129E-20
   264.6698  2.174039E-20
   264.7858  2.269070E-20
   264.9017  2.306395E-20
   265.0176  2.336773E-20
   265.1334  2.390751E-20
   265.2492  2.459454E-20
   265.3650  2.431157E-20
   265.4807  2.431717E-20
   265.5963  2.387150E-20
   265.7120  2.330099E-20
   265.8275  2.413535E-20
   265.9431  2.365575E-20
   266.0585  2.414543E-20
   266.1740  2.345776E-20
   266.2894  2.366375E-20
   266.4047  2.250912E-20
   266.5200  2.265085E-20
   266.6353  2.257555E-20
   266.7505  2.306107E-20
   266.8657  2.327650E-20
   266.9808  2.402243E-20
   267.0959  2.446090E-20
   267.2110  2.515569E-20
   267.3260  2.600581E-20
   267.4409  2.628334E-20
   267.5558  2.548396E-20
   267.6707  2.540657E-20
   267.7856  2.451323E-20
   267.9004  2.577485E-20
   268.0151  2.539777E-20
   268.1298  2.497619E-20
   268.2445  2.643307E-20
   268.3592  2.762251E-20
   268.4738  2.799168E-20
   268.5883  2.914438E-20
   268.7028  2.963422E-20
   268.8173  2.938118E-20
   268.9317  3.089913E-20
   269.0461  3.045402E-20
   269.1605  3.083671E-20
   269.2748  3.172604E-20
   269.3891  3.157615E-20
   269.5034  3.126709E-20
   269.6176  3.140786E-20
   269.7317  3.152574E-20
   269.8459  3.125197E-20
   269.9600  3.097203E-20
   270.0740  3.033086E-20
   270.1880  3.035158E-20
   270.3020  3.159976E-20
   270.4160  3.097835E-20
   270.5299  3.032069E-20
   270.6437  3.070394E-20
   270.7576  2.978820E-20
   270.8714  3.081886E-20
   270.9851  3.060239E-20
   271.0989  3.090945E-20
   271.2126  3.080158E-20
   271.3262  2.919648E-20
   271.4399  3.028332E-20
   271.5535  3.048563E-20
   271.6670  2.973754E-20
   271.7805  3.099140E-20
   271.8940  3.146676E-20
   272.0075  3.115705E-20
   272.1209  3.132975E-20
   272.2343  3.166562E-20
   272.3476  3.274839E-20
   272.4610  3.414189E-20
   272.5743  3.430923E-20
   272.6875  3.365413E-20
   272.8007  3.418991E-20
   272.9139  3.555660E-20
   273.0271  3.694371E-20
   273.1402  3.757544E-20
   273.2533  3.811490E-20
   273.3664  3.824630E-20
   273.4794  3.800566E-20
   273.5924  3.868621E-20
   273.7054  3.800462E-20
   273.8183  3.711713E-20
   273.9313  3.775734E-20
   274.0441  3.876632E-20
   274.1570  3.817092E-20
   274.2698  3.873711E-20
   274.3826  3.936292E-20
   274.4954  4.082853E-20
   274.6081  3.978994E-20
   274.7208  4.027762E-20
   274.8335  3.991198E-20
   274.9461  3.954890E-20
   275.0588  3.975817E-20
   275.1713  3.956907E-20
   275.2839  3.961012E-20
   275.3964  3.874599E-20
   275.5090  3.824134E-20
   275.6214  3.872726E-20
   275.7339  3.899735E-20
   275.8463  3.830816E-20
   275.9587  3.704342E-20
   276.0711  3.730151E-20
   276.1834  3.633550E-20
   276.2958  3.769996E-20
   276.4081  3.751438E-20
   276.5203  3.938404E-20
   276.6326  3.978394E-20
   276.7448  4.040511E-20
   276.8570  4.014094E-20
   276.9691  4.061189E-20
   277.0813  4.108453E-20
   277.1934  4.109029E-20
   277.3055  4.098866E-20
   277.4176  4.131933E-20
   277.5296  4.102619E-20
   277.6416  4.132981E-20
   277.7536  4.100186E-20
   277.8656  4.151644E-20
   277.9776  4.233031E-20
   278.0895  4.290242E-20
   278.2014  4.411523E-20
   278.3133  4.444117E-20
   278.4251  4.426584E-20
   278.5370  4.480994E-20
   278.6488  4.423575E-20
   278.7606  4.556331E-20
   278.8723  4.626426E-20
   278.9841  4.720650E-20
   279.0958  4.796163E-20
   279.2075  4.936162E-20
   279.3192  5.007666E-20
   279.4309  5.206140E-20
   279.5425  5.202955E-20
   279.6541  5.235126E-20
   279.7657  5.295674E-20
   279.8773  5.233077E-20
   279.9889  5.199170E-20
   280.1004  5.258782E-20
   280.2119  5.083579E-20
   280.3234  5.069630E-20
   280.4349  5.130499E-20
   280.5464  5.079658E-20
   280.6578  5.237495E-20
   280.7692  5.327693E-20
   280.8807  5.493556E-20
   280.9920  5.461537E-20
   281.1034  5.491051E-20
   281.2148  5.608627E-20
   281.3261  5.719384E-20
   281.4374  5.692463E-20
   281.5487  5.811350E-20
   281.6600  5.942402E-20
   281.7712  5.809918E-20
   281.8825  5.674929E-20
   281.9937  5.628385E-20
   282.1049  5.523134E-20
   282.2161  5.475158E-20
   282.3273  5.427534E-20
   282.4385  5.324932E-20
   282.5496  5.296666E-20
   282.6607  5.492172E-20
   282.7718  5.448981E-20
   282.8829  5.497598E-20
   282.9940  5.588404E-20
   283.1051  5.790447E-20
   283.2161  5.888272E-20
   283.3272  6.070973E-20
   283.4382  6.158026E-20
   283.5492  6.203722E-20
   283.6602  6.247584E-20
   283.7712  6.432062E-20
   283.8821  6.597261E-20
   283.9931  6.623974E-20
   284.1040  6.806515E-20
   284.2149  6.834652E-20
   284.3259  6.935558E-20
   284.4367  6.796768E-20
   284.5476  6.918881E-20
   284.6585  6.844000E-20
   284.7693  6.864774E-20
   284.8802  7.128871E-20
   284.9910  7.193620E-20
   285.1018  7.228936E-20
   285.2126  7.263972E-20
   285.3234  7.240700E-20
   285.4342  7.341110E-20
   285.5450  7.434389E-20
   285.6557  7.485078E-20
   285.7665  7.447921E-20
   285.8772  7.612768E-20
   285.9879  7.621972E-20
   286.0986  7.761802E-20
   286.2093  7.763563E-20
   286.3200  7.743436E-20
   286.4307  7.701110E-20
   286.5413  7.617466E-20
   286.6520  7.688346E-20
   286.7626  7.523755E-20
   286.8733  7.415471E-20
   286.9839  7.290989E-20
   287.0945  7.332787E-20
   287.2051  7.309723E-20
   287.3157  7.344215E-20
   287.4263  7.293310E-20
   287.5369  7.347456E-20
   287.6474  7.302377E-20
   287.7580  7.474834E-20
   287.8685  7.406844E-20
   287.9791  7.386237E-20
   288.0896  7.273943E-20
   288.2001  7.386765E-20
   288.3106  7.385469E-20
   288.4211  7.479004E-20
   288.5316  7.500843E-20
   288.6421  7.578829E-20
   288.7526  7.632551E-20
   288.8630  7.777416E-20
   288.9735  7.823495E-20
   289.0839  7.936773E-20
   289.1944  7.902809E-20
   289.3048  7.879082E-20
   289.4152  7.857290E-20
   289.5257  8.073739E-20
   289.6361  8.246996E-20
   289.7465  8.358154E-20
   289.8569  8.456507E-20
   289.9673  8.492839E-20
   290.0777  8.573426E-20
   290.1880  8.627204E-20
   290.2984  8.697787E-20
   290.4088  8.592872E-20
   290.5191  8.538534E-20
   290.6295  8.486837E-20
   290.7398  8.500121E-20
   290.8502  8.681462E-20
   290.9605  8.779815E-20
   291.0708  9.029178E-20
   291.1811  9.158421E-20
   291.2915  9.369372E-20
   291.4018  9.485731E-20
   291.5121  9.691719E-20
   291.6224  9.798635E-20
   291.7327  9.772466E-20
   291.8429  9.811439E-20
   291.9532  9.752940E-20
   292.0635  9.817041E-20
   292.1738  9.853293E-20
   292.2840  1.002311E-19
   292.3943  1.016924E-19
   292.5046  1.028944E-19
   292.6148  1.039307E-19
   292.7251  1.029168E-19
   292.8353  1.013651E-19
   292.9455  9.923237E-20
   293.0558  9.756381E-20
   293.1660  9.565197E-20
   293.2762  9.570639E-20
   293.3864  9.424430E-20
   293.4967  9.292386E-20
   293.6069  9.252453E-20
   293.7171  9.242929E-20
   293.8273  9.274380E-20
   293.9375  9.300629E-20
   294.0477  9.271739E-20
   294.1579  9.371772E-20
   294.2681  9.505257E-20
   294.3782  9.685397E-20
   294.4884  9.925798E-20
   294.5986  1.018404E-19
   294.7088  1.040100E-19
   294.8189  1.061411E-19
   294.9291  1.065324E-19
   295.0393  1.063956E-19
   295.1494  1.047630E-19
   295.2596  1.032545E-19
   295.3698  1.006424E-19
   295.4799  9.784070E-20
   295.5901  9.718208E-20
   295.7002  9.664270E-20
   295.8103  9.633460E-20
   295.9205  9.628738E-20
   296.0306  9.871059E-20
   296.1408  1.015908E-19
   296.2509  1.039916E-19
   296.3610  1.074415E-19
   296.4711  1.119830E-19
   296.5813  1.144479E-19
   296.6914  1.166462E-19
   296.8015  1.188589E-19
   296.9116  1.219872E-19
   297.0217  1.248785E-19
   297.1318  1.270537E-19
   297.2420  1.313135E-19
   297.3521  1.347859E-19
   297.4622  1.358414E-19
   297.5723  1.369906E-19
   297.6824  1.361479E-19
   297.7925  1.340024E-19
   297.9026  1.304996E-19
   298.0126  1.275514E-19
   298.1227  1.250402E-19
   298.2328  1.233388E-19
   298.3429  1.228667E-19
   298.4530  1.215422E-19
   298.5631  1.226466E-19
   298.6732  1.207836E-19
   298.7832  1.215166E-19
   298.8933  1.213197E-19
   299.0034  1.225282E-19
   299.1135  1.238006E-19
   299.2235  1.250362E-19
   299.3336  1.261206E-19
   299.4437  1.270657E-19
   299.5537  1.273802E-19
   299.6638  1.273586E-19
   299.7738  1.284181E-19
   299.8839  1.284613E-19
   299.9939  1.276931E-19
   300.1040  1.256188E-19
   300.2140  1.232692E-19
   300.3241  1.213782E-19
   300.4341  1.192182E-19
   300.5442  1.200369E-19
   300.6542  1.215518E-19
   300.7643  1.231900E-19
   300.8743  1.232484E-19
   300.9843  1.231716E-19
   301.0944  1.228963E-19
   301.2044  1.230739E-19
   301.3144  1.233964E-19
   301.4244  1.240775E-19
   301.5345  1.268168E-19
   301.6445  1.294017E-19
   301.7545  1.320025E-19
   301.8645  1.366273E-19
   301.9745  1.381270E-19
   302.0845  1.419058E-19
   302.1945  1.435808E-19
   302.3045  1.455254E-19
   302.4145  1.463913E-19
   302.5245  1.464610E-19
   302.6345  1.464313E-19
   302.7445  1.467539E-19
   302.8545  1.487073E-19
   302.9645  1.519852E-19
   303.0745  1.563787E-19
   303.1845  1.582153E-19
   303.2945  1.605080E-19
   303.4044  1.598934E-19
   303.5144  1.597262E-19
   303.6244  1.591868E-19
   303.7343  1.594117E-19
   303.8443  1.578224E-19
   303.9543  1.552311E-19
   304.0642  1.558425E-19
   304.1742  1.543620E-19
   304.2841  1.550198E-19
   304.3941  1.554167E-19
   304.5040  1.571229E-19
   304.6140  1.574454E-19
   304.7239  1.588523E-19
   304.8338  1.606441E-19
   304.9438  1.617213E-19
   305.0537  1.632938E-19
   305.1636  1.624839E-19
   305.2735  1.625799E-19
   305.3834  1.611803E-19
   305.4933  1.596422E-19
   305.6032  1.577047E-19
   305.7131  1.563715E-19
   305.8230  1.549998E-19
   305.9329  1.538178E-19
   306.0428  1.531368E-19
   306.1527  1.542604E-19
   306.2625  1.537930E-19
   306.3724  1.570677E-19
   306.4823  1.583113E-19
   306.5921  1.606857E-19
   306.7020  1.625823E-19
   306.8118  1.646846E-19
   306.9217  1.667229E-19
   307.0315  1.710868E-19
   307.1413  1.736052E-19
   307.2511  1.746008E-19
   307.3610  1.747208E-19
   307.4708  1.741598E-19
   307.5806  1.741046E-19
   307.6904  1.715381E-19
   307.8002  1.685523E-19
   307.9099  1.666325E-19
   308.0197  1.653809E-19
   308.1295  1.639468E-19
   308.2393  1.612979E-19
   308.3490  1.622598E-19
   308.4588  1.629169E-19
   308.5685  1.647879E-19
   308.6782  1.681282E-19
   308.7880  1.745856E-19
   308.8977  1.814526E-19
   309.0074  1.865327E-19
   309.1171  1.921514E-19
   309.2268  1.949396E-19
   309.3365  1.966665E-19
   309.4461  1.992754E-19
   309.5558  1.979230E-19
   309.6655  1.973196E-19
   309.7751  1.975892E-19
   309.8848  1.948691E-19
   309.9944  1.915192E-19
   310.1040  1.892729E-19
   310.2136  1.867024E-19
   310.3232  1.860846E-19
   310.4328  1.851307E-19
   310.5424  1.855828E-19
   310.6520  1.886463E-19
   310.7615  1.910911E-19
   310.8711  1.923035E-19
   310.9806  1.930685E-19
   311.0257  1.929429E-19
   311.1406  1.935431E-19
   311.2555  1.959047E-19
   311.3704  1.977381E-19
   311.4852  2.003406E-19
   311.6001  2.020787E-19
   311.7149  2.017450E-19
   311.8297  1.995123E-19
   311.9444  1.984519E-19
   312.0592  1.990217E-19
   312.1739  2.016562E-19
   312.2886  2.069132E-19
   312.4033  2.117980E-19
   312.5180  2.149566E-19
   312.6326  2.164748E-19
   312.7472  2.155713E-19
   312.8619  2.143252E-19
   312.9764  2.121717E-19
   313.0910  2.103439E-19
   313.2055  2.084081E-19
   313.3201  2.059624E-19
   313.4346  2.035000E-19
   313.5491  2.012953E-19
   313.6635  1.991634E-19
   313.7780  1.987032E-19
   313.8924  1.985800E-19
   314.0068  1.994355E-19
   314.1211  2.004966E-19
   314.2355  2.020171E-19
   314.3498  2.045044E-19
   314.4641  2.079991E-19
   314.5784  2.124854E-19
   314.6927  2.176640E-19
   314.8069  2.220686E-19
   314.9212  2.270303E-19
   315.0354  2.299216E-19
   315.1496  2.313197E-19
   315.2637  2.303658E-19
   315.3779  2.284067E-19
   315.4920  2.250920E-19
   315.6061  2.227545E-19
   315.7202  2.209090E-19
   315.8342  2.196862E-19
   315.9482  2.185298E-19
   316.0622  2.174087E-19
   316.1762  2.167572E-19
   316.2902  2.162243E-19
   316.4041  2.161506E-19
   316.5181  2.173526E-19
   316.6320  2.190100E-19
   316.7458  2.216317E-19
   316.8597  2.246735E-19
   316.9735  2.277561E-19
   317.0873  2.310780E-19
   317.2011  2.353395E-19
   317.3149  2.397073E-19
   317.4286  2.452204E-19
   317.5424  2.503733E-19
   317.6561  2.547387E-19
   317.7697  2.577774E-19
   317.8834  2.586408E-19
   317.9970  2.576165E-19
   318.1106  2.567338E-19
   318.2242  2.561496E-19
   318.3378  2.548292E-19
   318.4513  2.523652E-19
   318.5649  2.501628E-19
   318.6784  2.464920E-19
   318.7918  2.439159E-19
   318.9053  2.419425E-19
   319.0187  2.399274E-19
   319.1321  2.394704E-19
   319.2455  2.391431E-19
   319.3589  2.389751E-19
   319.4722  2.396489E-19
   319.5855  2.426091E-19
   319.6988  2.471458E-19
   319.8121  2.526845E-19
   319.9253  2.583864E-19
   320.0386  2.637193E-19
   320.1518  2.684041E-19
   320.2650  2.719045E-19
   320.3781  2.742061E-19
   320.4912  2.740636E-19
   320.6044  2.715828E-19
   320.7174  2.669140E-19
   320.8305  2.625277E-19
   320.9436  2.587809E-19
   321.0566  2.576621E-19
   321.1696  2.560664E-19
   321.2825  2.553878E-19
   321.3955  2.545611E-19
   321.5084  2.540097E-19
   321.6213  2.540553E-19
   321.7342  2.561464E-19
   321.8471  2.583135E-19
   321.9599  2.613746E-19
   322.0727  2.643516E-19
   322.1855  2.675982E-19
   322.2983  2.704304E-19
   322.4110  2.731777E-19
   322.5237  2.758010E-19
   322.6364  2.790445E-19
   322.7491  2.813508E-19
   322.8618  2.833435E-19
   322.9744  2.841174E-19
   323.0870  2.840125E-19
   323.1996  2.837981E-19
   323.3121  2.830370E-19
   323.4247  2.819350E-19
   323.5372  2.809947E-19
   323.6497  2.801872E-19
   323.7621  2.794350E-19
   323.8746  2.782922E-19
   323.9870  2.765828E-19
   324.0994  2.747590E-19
   324.2118  2.735058E-19
   324.3241  2.729360E-19
   324.4365  2.735714E-19
   324.5488  2.753720E-19
   324.6610  2.784067E-19
   324.7733  2.820047E-19
   324.8855  2.867566E-19
   324.9978  2.923161E-19
   325.1099  2.986222E-19
   325.2221  3.041713E-19
   325.3343  3.082846E-19
   325.4464  3.092073E-19
   325.5585  3.088936E-19
   325.6705  3.068129E-19
   325.7826  3.041577E-19
   325.8946  3.023931E-19
   326.0066  3.017617E-19
   326.1186  3.018481E-19
   326.2306  3.029637E-19
   326.3425  3.057710E-19
   326.4544  3.102661E-19
   326.5663  3.124532E-19
   326.6782  3.115369E-19
   326.7900  3.091441E-19
   326.9018  3.061967E-19
   327.0136  3.030749E-19
   327.1254  3.014480E-19
   327.2372  3.010110E-19
   327.3489  3.028588E-19
   327.4606  3.068266E-19
   327.5723  3.116554E-19
   327.6840  3.159616E-19
   327.7956  3.186657E-19
   327.9072  3.207600E-19
   328.0188  3.209729E-19
   328.1304  3.184272E-19
   328.2419  3.153566E-19
   328.3534  3.118322E-19
   328.4649  3.099020E-19
   328.5764  3.076668E-19
   328.6879  3.058622E-19
   328.7993  3.053333E-19
   328.9107  3.073675E-19
   329.0221  3.110944E-19
   329.1335  3.163409E-19
   329.2448  3.209385E-19
   329.3561  3.258449E-19
   329.4674  3.299223E-19
   329.5787  3.353353E-19
   329.6900  3.394735E-19
   329.8012  3.419735E-19
   329.9124  3.433155E-19
   330.0236  3.419391E-19
   330.1348  3.384691E-19
   330.2459  3.330977E-19
   330.3570  3.275151E-19
   330.4681  3.234305E-19
   330.5792  3.214979E-19
   330.6902  3.214787E-19
   330.8013  3.229063E-19
   330.9123  3.250999E-19
   331.0232  3.269821E-19
   331.1342  3.292901E-19
   331.2451  3.305105E-19
   331.3561  3.313387E-19
   331.4670  3.310074E-19
   331.5778  3.300063E-19
   331.6887  3.291396E-19
   331.7995  3.279248E-19
   331.9103  3.264435E-19
   332.0211  3.262635E-19
   332.1319  3.280937E-19
   332.2426  3.323071E-19
   332.3533  3.402953E-19
   332.4640  3.513566E-19
   332.5747  3.646131E-19
   332.6853  3.779807E-19
   332.7960  3.902688E-19
   332.9066  4.017095E-19
   333.0172  4.088206E-19
   333.1277  4.110894E-19
   333.2383  4.069792E-19
   333.3488  3.983980E-19
   333.4593  3.868469E-19
   333.5698  3.758544E-19
   333.6802  3.664113E-19
   333.7907  3.594481E-19
   333.9011  3.520785E-19
   334.0115  3.434348E-19
   334.1219  3.348255E-19
   334.2322  3.284202E-19
   334.3425  3.263507E-19
   334.4529  3.276295E-19
   334.5631  3.313411E-19
   334.6734  3.382250E-19
   334.7836  3.484853E-19
   334.8939  3.627468E-19
   335.0041  3.780920E-19
   335.1143  3.877840E-19
   335.2244  3.870014E-19
   335.3346  3.787122E-19
   335.4447  3.693354E-19
   335.5548  3.620914E-19
   335.6648  3.574563E-19
   335.7749  3.551219E-19
   335.8849  3.554284E-19
   335.9949  3.584566E-19
   336.1049  3.636567E-19
   336.2149  3.691762E-19
   336.3249  3.743595E-19
   336.4348  3.785521E-19
   336.5447  3.798182E-19
   336.6546  3.798077E-19
   336.7645  3.797957E-19
   336.8743  3.804480E-19
   336.9841  3.786762E-19
   337.0940  3.743803E-19
   337.2037  3.683119E-19
   337.3135  3.627156E-19
   337.4233  3.559806E-19
   337.5330  3.508421E-19
   337.6427  3.471856E-19
   337.7524  3.442215E-19
   337.8620  3.429314E-19
   337.9717  3.444327E-19
   338.0813  3.504980E-19
   338.1909  3.615224E-19
   338.3005  3.779175E-19
   338.4101  3.963885E-19
   338.5196  4.151972E-19
   338.6292  4.299133E-19
   338.7387  4.372157E-19
   338.8482  4.403704E-19
   338.9576  4.423174E-19
   339.0671  4.420926E-19
   339.1765  4.404144E-19
   339.2859  4.360145E-19
   339.3953  4.286849E-19
   339.5047  4.195186E-19
   339.6140  4.108909E-19
   339.7234  4.041487E-19
   339.8327  4.006147E-19
   339.9420  3.998232E-19
   340.0512  4.005675E-19
   340.1605  4.018383E-19
   340.2697  4.028723E-19
   340.3790  4.049946E-19
   340.4882  4.073730E-19
   340.5973  4.104140E-19
   340.7065  4.139912E-19
   340.8156  4.195946E-19
   340.9248  4.275869E-19
   341.0339  4.375382E-19
   341.1430  4.475104E-19
   341.2520  4.549129E-19
   341.3611  4.584604E-19
   341.4701  4.586757E-19
   341.5791  4.570696E-19
   341.6881  4.528474E-19
   341.7971  4.493790E-19
   341.9061  4.449471E-19
   342.0150  4.359369E-19
   342.1239  4.243514E-19
   342.2328  4.129956E-19
   342.3417  4.034749E-19
   342.4506  3.954922E-19
   342.5594  3.895814E-19
   342.6683  3.848702E-19
   342.7771  3.791995E-19
   342.8859  3.737529E-19
   342.9947  3.700621E-19
   343.1034  3.681286E-19
   343.2122  3.694539E-19
   343.3209  3.754239E-19
   343.4296  3.866828E-19
   343.5383  3.979138E-19
   343.6470  4.060685E-19
   343.7556  4.110670E-19
   343.8643  4.148867E-19
   343.9729  4.164536E-19
   344.0815  4.158598E-19
   344.1901  4.140112E-19
   344.2987  4.116216E-19
   344.4072  4.097746E-19
   344.5158  4.099690E-19
   344.6243  4.125155E-19
   344.7328  4.175436E-19
   344.8413  4.220971E-19
   344.9498  4.253102E-19
   345.0582  4.274717E-19
   345.1666  4.290674E-19
   345.2751  4.310777E-19
   345.3835  4.321276E-19
   345.4919  4.304295E-19
   345.6002  4.269363E-19
   345.7086  4.253518E-19
   345.8169  4.295844E-19
   345.9253  4.374286E-19
   346.0336  4.478465E-19
   346.1419  4.580795E-19
   346.2501  4.650963E-19
   346.3584  4.683517E-19
   346.4666  4.702852E-19
   346.5749  4.727284E-19
   346.6831  4.762264E-19
   346.7913  4.783527E-19
   346.8995  4.770971E-19
   347.0076  4.709438E-19
   347.1158  4.629908E-19
   347.2239  4.549865E-19
   347.3320  4.497615E-19
   347.4401  4.466645E-19
   347.5482  4.446630E-19
   347.6563  4.425807E-19
   347.7644  4.435507E-19
   347.8724  4.487476E-19
   347.9805  4.584388E-19
   348.0885  4.782695E-19
   348.1965  5.088141E-19
   348.3045  5.406247E-19
   348.4124  5.630754E-19
   348.5204  5.736966E-19
   348.6283  5.691078E-19
   348.7363  5.548551E-19
   348.8442  5.388321E-19
   348.9521  5.238143E-19
   349.0599  5.078401E-19
   349.1678  4.876702E-19
   349.2757  4.657453E-19
   349.3835  4.443973E-19
   349.4913  4.298133E-19
   349.5992  4.215889E-19
   349.7070  4.175051E-19
   349.8147  4.150515E-19
   349.9225  4.147818E-19
   350.0303  4.159126E-19
   350.1380  4.194418E-19
   350.2458  4.229470E-19
   350.3535  4.278886E-19
   350.4612  4.373934E-19
   350.5689  4.494014E-19
   350.6765  4.583548E-19
   350.7842  4.647265E-19
   350.8919  4.710566E-19
   350.9995  4.766729E-19
   351.1071  4.809031E-19
   351.2147  4.860961E-19
   351.3223  4.892251E-19
   351.4299  4.864746E-19
   351.5375  4.790281E-19
   351.6451  4.681133E-19
   351.7526  4.544383E-19
   351.8601  4.448839E-19
   351.9677  4.434594E-19
   352.0752  4.493958E-19
   352.1827  4.617799E-19
   352.2901  4.733478E-19
   352.3976  4.777725E-19
   352.5051  4.753989E-19
   352.6125  4.672882E-19
   352.7200  4.551265E-19
   352.8274  4.376359E-19
   352.9348  4.216697E-19
   353.0422  4.110558E-19
   353.1496  4.083253E-19
   353.2570  4.104748E-19
   353.3643  4.164424E-19
   353.4717  4.269307E-19
   353.5790  4.404808E-19
   353.6864  4.550833E-19
   353.7937  4.723083E-19
   353.9010  4.928167E-19
   354.0083  5.113741E-19
   354.1156  5.307022E-19
   354.2228  5.522766E-19
   354.3301  5.722609E-19
   354.4374  5.859743E-19
   354.5446  5.907879E-19
   354.6518  5.888808E-19
   354.7591  5.831917E-19
   354.8663  5.757212E-19
   354.9735  5.652769E-19
   355.0806  5.516812E-19
   355.1878  5.350604E-19
   355.2950  5.193968E-19
   355.4021  5.050640E-19
   355.5093  4.932465E-19
   355.6164  4.842651E-19
   355.7236  4.768034E-19
   355.8307  4.694001E-19
   355.9378  4.648554E-19
   356.0449  4.647585E-19
   356.1520  4.701299E-19
   356.2590  4.781214E-19
   356.3661  4.867955E-19
   356.4731  4.947678E-19
   356.5802  5.042814E-19
   356.6872  5.172577E-19
   356.7943  5.332174E-19
   356.9013  5.493516E-19
   357.0083  5.650297E-19
   357.1153  5.818657E-19
   357.2223  5.947884E-19
   357.3292  6.004935E-19
   357.4362  5.970612E-19
   357.5432  5.898716E-19
   357.6501  5.812807E-19
   357.7571  5.686573E-19
   357.8640  5.559242E-19
   357.9709  5.473822E-19
   358.0778  5.419211E-19
   358.1848  5.342682E-19
   358.2917  5.259174E-19
   358.3985  5.191967E-19
   358.5054  5.129106E-19
   358.6123  5.049688E-19
   358.7192  4.977296E-19
   358.8260  4.914971E-19
   358.9329  4.847708E-19
   359.0397  4.763472E-19
   359.1465  4.694577E-19
   359.2534  4.698346E-19
   359.3602  4.726684E-19
   359.4670  4.755341E-19
   359.5738  4.775772E-19
   359.6806  4.786016E-19
   359.7874  4.797460E-19
   359.8942  4.801205E-19
   360.0009  4.777429E-19
   360.1077  4.765225E-19
   360.2144  4.809792E-19
   360.3212  4.909377E-19
   360.4279  5.011531E-19
   360.5347  5.109492E-19
   360.6414  5.219729E-19
   360.7481  5.350068E-19
   360.8548  5.463426E-19
   360.9615  5.529640E-19
   361.0682  5.572046E-19
   361.1749  5.575704E-19
   361.2816  5.560122E-19
   361.3883  5.513027E-19
   361.4950  5.435161E-19
   361.6016  5.353349E-19
   361.7083  5.275019E-19
   361.8149  5.228524E-19
   361.9216  5.206044E-19
   362.0282  5.210269E-19
   362.1348  5.233541E-19
   362.2415  5.272850E-19
   362.3481  5.317137E-19
   362.4547  5.340193E-19
   362.5613  5.360400E-19
   362.6679  5.366794E-19
   362.7745  5.350404E-19
   362.8811  5.327621E-19
   362.9877  5.340897E-19
   363.0943  5.352653E-19
   363.2008  5.326676E-19
   363.3074  5.276332E-19
   363.4140  5.245665E-19
   363.5205  5.207228E-19
   363.6271  5.145160E-19
   363.7336  5.060788E-19
   363.8402  4.981377E-19
   363.9467  4.941620E-19
   364.0532  4.979744E-19
   364.1597  5.090734E-19
   364.2663  5.219184E-19
   364.3728  5.348532E-19
   364.4793  5.464819E-19
   364.5858  5.571694E-19
   364.6923  5.706563E-19
   364.7988  5.842177E-19
   364.9053  5.929662E-19
   365.0118  6.001206E-19
   365.1183  6.102072E-19
   365.2247  6.233748E-19
   365.3312  6.349594E-19
   365.4377  6.396450E-19
   365.5441  6.348498E-19
   365.6506  6.283244E-19
   365.7571  6.202721E-19
   365.8635  6.061050E-19
   365.9700  5.902213E-19
   366.0764  5.755884E-19
   366.1828  5.580601E-19
   366.2893  5.380006E-19
   366.3957  5.198321E-19
   366.5021  5.073888E-19
   366.6086  5.015997E-19
   366.7150  5.004673E-19
   366.8214  5.041877E-19
   366.9278  5.115814E-19
   367.0342  5.235646E-19
   367.1406  5.365793E-19
   367.2470  5.497397E-19
   367.3534  5.641630E-19
   367.4598  5.755780E-19
   367.5662  5.794057E-19
   367.6726  5.772970E-19
   367.7790  5.726962E-19
   367.8854  5.703690E-19
   367.9918  5.712821E-19
   368.0982  5.710477E-19
   368.2045  5.685364E-19
   368.3109  5.638973E-19
   368.4173  5.587019E-19
   368.5236  5.555225E-19
   368.6300  5.531513E-19
   368.7364  5.478367E-19
   368.8427  5.408024E-19
   368.9491  5.407031E-19
   369.0554  5.459121E-19
   369.1618  5.515948E-19
   369.2681  5.594110E-19
   369.3745  5.642894E-19
   369.4808  5.636412E-19
   369.5872  5.599568E-19
   369.6935  5.560931E-19
   369.7999  5.517964E-19
   369.9062  5.476478E-19
   370.0125  5.502551E-19
   370.1189  5.579145E-19
   370.2252  5.611868E-19
   370.3315  5.579369E-19
   370.4379  5.525967E-19
   370.5442  5.442851E-19
   370.6505  5.345907E-19
   370.7569  5.232981E-19
   370.8632  5.125673E-19
   370.9695  5.065205E-19
   371.0758  5.114349E-19
   371.1821  5.252284E-19
   371.2885  5.380270E-19
   371.3948  5.463434E-19
   371.5011  5.582538E-19
   371.6074  5.748185E-19
   371.7137  5.945275E-19
   371.8200  6.125231E-19
   371.9263  6.273345E-19
   372.0326  6.401452E-19
   372.1390  6.475828E-19
   372.2453  6.458119E-19
   372.3516  6.436847E-19
   372.4579  6.470035E-19
   372.5642  6.506863E-19
   372.6705  6.494579E-19
   372.7768  6.400195E-19
   372.8831  6.247536E-19
   372.9894  6.091524E-19
   373.0957  5.950957E-19
   373.2020  5.846802E-19
   373.3083  5.762798E-19
   373.4146  5.684460E-19
   373.5209  5.618702E-19
   373.6272  5.566020E-19
   373.7335  5.560587E-19
   373.8398  5.615125E-19
   373.9461  5.711261E-19
   374.0524  5.767768E-19
   374.1587  5.734893E-19
   374.2650  5.653666E-19
   374.3713  5.560619E-19
   374.4776  5.409072E-19
   374.5839  5.272842E-19
   374.6902  5.215903E-19
   374.7965  5.217736E-19
   374.9028  5.258550E-19
   375.0091  5.340769E-19
   375.1154  5.493020E-19
   375.2217  5.720928E-19
   375.3280  5.950789E-19
   375.4343  6.109658E-19
   375.5406  6.202817E-19
   375.6469  6.266639E-19
   375.7532  6.316087E-19
   375.8595  6.351259E-19
   375.9659  6.354124E-19
   376.0722  6.446299E-19
   376.1785  6.693845E-19
   376.2848  6.961479E-19
   376.3911  7.114074E-19
   376.4974  7.118307E-19
   376.6037  7.006806E-19
   376.7100  6.853323E-19
   376.8163  6.698247E-19
   376.9226  6.515738E-19
   377.0290  6.289838E-19
   377.1353  6.095181E-19
   377.2416  5.942626E-19
   377.3479  5.771313E-19
   377.4542  5.582562E-19
   377.5605  5.434648E-19
   377.6669  5.380758E-19
   377.7732  5.369275E-19
   377.8795  5.380887E-19
   377.9858  5.451958E-19
   378.0922  5.493996E-19
   378.1985  5.440386E-19
   378.3048  5.369323E-19
   378.4112  5.350652E-19
   378.5175  5.389914E-19
   378.6238  5.433360E-19
   378.7302  5.450862E-19
   378.8365  5.495605E-19
   378.9428  5.546638E-19
   379.0492  5.605634E-19
   379.1555  5.690366E-19
   379.2619  5.793881E-19
   379.3682  5.933175E-19
   379.4746  6.131633E-19
   379.5809  6.387159E-19
   379.6872  6.639211E-19
   379.7936  6.797488E-19
   379.9000  6.854883E-19
   380.0063  6.855499E-19
   380.1127  6.779346E-19
   380.2190  6.661002E-19
   380.3254  6.575374E-19
   380.4318  6.523845E-19
   380.5381  6.497804E-19
   380.6445  6.511352E-19
   380.7509  6.514802E-19
   380.8572  6.476981E-19
   380.9636  6.374098E-19
   381.0700  6.271160E-19
   381.1764  6.205146E-19
   381.2827  6.159123E-19
   381.3891  6.124575E-19
   381.4955  6.105241E-19
   381.6019  6.095053E-19
   381.7083  6.129041E-19
   381.8147  6.167573E-19
   381.9211  6.147767E-19
   382.0275  6.099647E-19
   382.1339  6.108378E-19
   382.2403  6.151424E-19
   382.3467  6.104288E-19
   382.4531  5.926797E-19
   382.5595  5.733692E-19
   382.6659  5.630658E-19
   382.7723  5.642022E-19
   382.8787  5.721824E-19
   382.9851  5.761054E-19
   383.0916  5.755876E-19
   383.1980  5.778844E-19
   383.3044  5.860095E-19
   383.4108  5.941994E-19
   383.5173  5.959104E-19
   383.6237  5.940898E-19
   383.7301  5.997685E-19
   383.8366  6.134923E-19
   383.9430  6.284485E-19
   384.0495  6.390272E-19
   384.1559  6.372194E-19
   384.2623  6.279179E-19
   384.3688  6.263061E-19
   384.4753  6.364287E-19
   384.5817  6.508103E-19
   384.6882  6.599870E-19
   384.7946  6.688916E-19
   384.9011  6.789013E-19
   385.0076  6.745791E-19
   385.1140  6.588730E-19
   385.2205  6.402276E-19
   385.3270  6.278467E-19
   385.4334  6.240478E-19
   385.5399  6.218663E-19
   385.6464  6.278250E-19
   385.7529  6.462120E-19
   385.8594  6.549917E-19
   385.9659  6.441457E-19
   386.0724  6.242663E-19
   386.1789  6.059081E-19
   386.2854  5.911928E-19
   386.3919  5.774826E-19
   386.4984  5.664869E-19
   386.6049  5.608427E-19
   386.7114  5.629474E-19
   386.8179  5.737494E-19
   386.9244  5.902781E-19
   387.0309  6.045109E-19
   387.1374  6.147223E-19
   387.2440  6.240054E-19
   387.3505  6.313230E-19
   387.4570  6.383021E-19
   387.5636  6.428637E-19
   387.6701  6.432750E-19
   387.7766  6.439824E-19
   387.8832  6.492058E-19
   387.9897  6.527902E-19
   388.0963  6.488697E-19
   388.2028  6.402596E-19
   388.3093  6.311045E-19
   388.4159  6.231195E-19
   388.5225  6.167886E-19
   388.6290  6.150456E-19
   388.7356  6.173055E-19
   388.8421  6.214525E-19
   388.9487  6.286565E-19
   389.0553  6.405589E-19
   389.1618  6.547693E-19
   389.2684  6.646606E-19
   389.3750  6.654344E-19
   389.4816  6.599142E-19
   389.5882  6.510184E-19
   389.6947  6.374010E-19
   389.8013  6.270520E-19
   389.9079  6.254755E-19
   390.0145  6.320457E-19
   390.1211  6.380108E-19
   390.2277  6.405581E-19
   390.3343  6.462608E-19
   390.4409  6.496275E-19
   390.5475  6.458087E-19
   390.6541  6.370665E-19
   390.7607  6.302667E-19
   390.8673  6.250233E-19
   390.9739  6.224833E-19
   391.0805  6.254202E-19
   391.1872  6.313718E-19
   391.2938  6.357525E-19
   391.4004  6.347946E-19
   391.5070  6.370585E-19
   391.6136  6.565018E-19
   391.7203  6.858580E-19
   391.8269  7.149454E-19
   391.9335  7.268653E-19
   392.0402  7.110425E-19
   392.1468  6.831379E-19
   392.2534  6.596269E-19
   392.3601  6.495883E-19
   392.4667  6.477517E-19
   392.5734  6.458863E-19
   392.6800  6.462592E-19
   392.7867  6.485072E-19
   392.8933  6.470843E-19
   393.0000  6.328571E-19
   393.1066  6.085426E-19
   393.2133  5.832357E-19
   393.3199  5.669855E-19
   393.4266  5.606738E-19
   393.5333  5.671400E-19
   393.6399  5.793512E-19
   393.7466  5.896019E-19
   393.8532  5.944531E-19
   393.9599  5.936888E-19
   394.0666  5.927629E-19
   394.1732  5.893770E-19
   394.2799  5.790776E-19
   394.3866  5.702090E-19
   394.4933  5.674609E-19
   394.5999  5.671015E-19
   394.7066  5.657659E-19
   394.8133  5.671872E-19
   394.9200  5.810974E-19
   395.0267  5.984376E-19
   395.1333  6.096142E-19
   395.2400  6.213437E-19
   395.3467  6.383470E-19
   395.4534  6.609873E-19
   395.5601  6.797904E-19
   395.6668  6.803402E-19
   395.7734  6.804410E-19
   395.8801  6.884397E-19
   395.9868  6.986015E-19
   396.0935  6.892688E-19
   396.2002  6.678016E-19
   396.3069  6.437608E-19
   396.4136  6.266446E-19
   396.5203  6.088163E-19
   396.6270  5.934784E-19
   396.7337  5.808189E-19
   396.8404  5.720184E-19
   396.9470  5.731356E-19
   397.0537  5.745288E-19
   397.1604  5.773770E-19
   397.2671  5.775418E-19
   397.3738  5.712077E-19
   397.4805  5.683812E-19
   397.5872  5.695840E-19
   397.6939  5.906510E-19
   397.8006  6.178689E-19
   397.9073  6.456302E-19
   398.0140  6.774888E-19
   398.1207  6.949947E-19
   398.2274  7.022643E-19
   398.3341  7.101422E-19
   398.4408  7.209114E-19
   398.5475  7.358780E-19
   398.6541  7.305442E-19
   398.7608  7.061320E-19
   398.8675  6.698039E-19
   398.9742  6.255187E-19
   399.0809  5.892730E-19
   399.1876  5.692063E-19
   399.2943  5.610587E-19
   399.4010  5.601608E-19
   399.5076  5.726106E-19
   399.6143  5.934263E-19
   399.7210  6.143165E-19
   399.8277  6.339815E-19
   399.9344  6.581112E-19
   400.0410  6.844240E-19
   400.1477  7.114474E-19
   400.2544  7.196637E-19
   400.3611  7.165211E-19
   400.4677  7.049316E-19
   400.5744  7.110809E-19
   400.6811  7.048148E-19
   400.7877  6.912206E-19
   400.8944  6.910566E-19
   401.0011  6.978701E-19
   401.1077  6.983038E-19
   401.2144  7.020587E-19
   401.3210  6.929172E-19
   401.4277  6.789253E-19
   401.5343  6.673158E-19
   401.6410  6.599638E-19
   401.7476  6.500053E-19
   401.8543  6.473548E-19
   401.9609  6.426996E-19
   402.0675  6.284172E-19
   402.1742  6.139900E-19
   402.2808  5.941146E-19
   402.3477  5.870370E-19
   402.5947  5.673936E-19
   402.8416  5.574983E-19
   403.0885  5.534250E-19
   403.3354  5.517220E-19
   403.5821  5.627993E-19
   403.8289  5.925653E-19
   404.0756  6.232227E-19
   404.3223  6.267551E-19
   404.5689  6.167581E-19
   404.8154  6.304443E-19
   405.0620  6.681113E-19
   405.3084  6.921489E-19
   405.5549  6.686579E-19
   405.8013  6.196239E-19
   406.0476  5.891633E-19
   406.2939  5.779860E-19
   406.5402  5.566076E-19
   406.7864  5.238023E-19
   407.0325  5.014220E-19
   407.2787  4.979744E-19
   407.5248  5.125313E-19
   407.7708  5.497021E-19
   408.0168  6.081009E-19
   408.2627  6.752009E-19
   408.5086  7.203120E-19
   408.7545  7.135409E-19
   409.0003  6.752289E-19
   409.2461  6.481294E-19
   409.4918  6.446347E-19
   409.7375  6.398515E-19
   409.9831  6.282804E-19
   410.2287  6.452141E-19
   410.4743  6.852442E-19
   410.7198  6.965056E-19
   410.9652  6.655104E-19
   411.2106  6.168830E-19
   411.4560  5.732924E-19
   411.7013  5.484497E-19
   411.9466  5.409968E-19
   412.1919  5.415098E-19
   412.4371  5.546334E-19
   412.6822  5.889152E-19
   412.9273  6.392761E-19
   413.1724  7.028789E-19
   413.4174  7.637777E-19
   413.6624  7.728239E-19
   413.9073  7.069883E-19
   414.1522  6.210916E-19
   414.3971  5.778363E-19
   414.6419  5.817176E-19
   414.8866  5.959032E-19
   415.1314  5.931126E-19
   415.3760  5.630346E-19
   415.6207  5.190527E-19
   415.8653  4.915515E-19
   416.1098  4.878951E-19
   416.3543  4.936722E-19
   416.5988  4.997526E-19
   416.8432  5.078297E-19
   417.0875  5.277524E-19
   417.3319  5.532649E-19
   417.5762  5.639389E-19
   417.8204  5.664885E-19
   418.0646  5.710717E-19
   418.3087  5.782221E-19
   418.5529  5.841432E-19
   418.7969  5.724809E-19
   419.0410  5.571510E-19
   419.2849  5.723513E-19
   419.5289  6.071605E-19
   419.7728  6.269520E-19
   420.0166  6.249657E-19
   420.2604  6.228458E-19
   420.5042  6.272673E-19
   420.7479  6.313774E-19
   420.9916  6.292903E-19
   421.2353  6.081953E-19
   421.4789  5.832165E-19
   421.7224  5.908463E-19
   421.9659  6.246952E-19
   422.2094  6.401916E-19
   422.4528  6.268663E-19
   422.6962  6.075207E-19
   422.9396  5.946844E-19
   423.1829  5.975853E-19
   423.4261  6.183187E-19
   423.6694  6.385966E-19
   423.9125  6.499324E-19
   424.1557  6.598261E-19
   424.3988  6.725424E-19
   424.6418  6.751096E-19
   424.8848  6.442513E-19
   425.1278  5.885023E-19
   425.3707  5.450462E-19
   425.6136  5.157316E-19
   425.8565  4.810712E-19
   426.0993  4.478025E-19
   426.3420  4.318603E-19
   426.5848  4.303606E-19
   426.8274  4.497887E-19
   427.0701  5.050472E-19
   427.3127  5.744048E-19
   427.5552  6.163044E-19
   427.7977  6.320345E-19
   428.0402  6.381893E-19
   428.2826  6.272625E-19
   428.5250  5.929030E-19
   428.7674  5.505184E-19
   429.0097  5.115670E-19
   429.2520  4.724643E-19
   429.4942  4.395165E-19
   429.7364  4.255278E-19
   429.9785  4.416644E-19
   430.2206  4.964379E-19
   430.4627  5.701754E-19
   430.7047  6.220079E-19
   430.9467  6.410439E-19
   431.1887  6.319832E-19
   431.4306  6.073574E-19
   431.6724  5.738598E-19
   431.9143  5.292985E-19
   432.1560  4.801597E-19
   432.3978  4.423743E-19
   432.6395  4.298357E-19
   432.8812  4.483282E-19
   433.1228  4.859704E-19
   433.3644  5.262855E-19
   433.6059  5.624960E-19
   433.8474  5.871835E-19
   434.0889  5.846442E-19
   434.3303  5.661012E-19
   434.5717  5.800843E-19
   434.8131  6.576134E-19
   435.0544  7.458269E-19
   435.2957  7.524483E-19
   435.5369  6.872617E-19
   435.7781  6.324002E-19
   436.0192  6.030007E-19
   436.2604  5.766231E-19
   436.5014  5.474046E-19
   436.7425  5.174337E-19
   436.9835  4.766305E-19
   437.2244  4.298765E-19
   437.4654  3.975953E-19
   437.7062  3.831537E-19
   437.9471  3.758944E-19
   438.1879  3.829488E-19
   438.4287  4.319828E-19
   438.6694  5.343370E-19
   438.9101  6.444722E-19
   439.1508  7.090714E-19
   439.3914  7.248343E-19
   439.6320  6.920641E-19
   439.8725  6.411727E-19
   440.1130  5.917746E-19
   440.3535  5.203963E-19
   440.5939  4.554738E-19
   440.8343  4.295972E-19
   441.0747  4.214905E-19
   441.3150  4.002394E-19
   441.5553  3.726061E-19
   441.7955  3.552211E-19
   442.0357  3.576579E-19
   442.2759  3.735689E-19
   442.5160  3.884194E-19
   442.7561  4.030003E-19
   442.9962  4.178717E-19
   443.2362  4.263649E-19
   443.4762  4.367524E-19
   443.7161  4.450311E-19
   443.9561  4.574681E-19
   444.1959  4.965628E-19
   444.4358  5.592261E-19
   444.6756  6.348306E-19
   444.9154  6.767630E-19
   445.1551  6.399771E-19
   445.3948  5.785294E-19
   445.6345  5.362816E-19
   445.8741  5.022855E-19
   446.1137  4.705301E-19
   446.3532  4.359057E-19
   446.5928  4.049722E-19
   446.8323  3.963373E-19
   447.0717  4.134310E-19
   447.3111  4.574553E-19
   447.5505  5.387729E-19
   447.7899  6.523452E-19
   448.0292  7.476691E-19
   448.2684  7.525099E-19
   448.5077  6.584593E-19
   448.7469  5.624056E-19
   448.9861  5.085340E-19
   449.2252  4.726892E-19
   449.4643  4.361018E-19
   449.7034  4.044120E-19
   449.9424  3.920110E-19
   450.1814  4.139792E-19
   450.4204  4.463236E-19
   450.6593  4.619712E-19
   450.8982  4.541806E-19
   451.1371  4.392924E-19
   451.3759  4.274037E-19
   451.6147  4.262617E-19
   451.8535  4.477809E-19
   452.0922  4.737335E-19
   452.3309  4.847452E-19
   452.5696  4.926239E-19
   452.8083  4.833560E-19
   453.0469  4.650010E-19
   453.2854  4.688911E-19
   453.5240  4.656012E-19
   453.7625  4.259848E-19
   454.0009  3.858682E-19
   454.2394  3.741322E-19
   454.4778  4.045128E-19
   454.7162  4.478913E-19
   454.9545  4.561581E-19
   455.1928  4.368860E-19
   455.4311  4.153836E-19
   455.6693  4.057252E-19
   455.9076  4.165832E-19
   456.1457  4.178413E-19
   456.3839  3.897759E-19
   456.6220  3.504555E-19
   456.8601  3.360539E-19
   457.0982  3.643618E-19
   457.3362  4.282791E-19
   457.5742  4.929648E-19
   457.8122  5.276868E-19
   458.0501  5.315129E-19
   458.2880  5.127650E-19
   458.5259  4.910025E-19
   458.7637  4.606948E-19
   459.0015  4.132101E-19
   459.2393  3.933443E-19
   459.4771  4.102403E-19
   459.7148  4.305887E-19
   459.9525  4.489100E-19
   460.1901  4.773275E-19
   460.4278  5.070815E-19
   460.6654  5.085820E-19
   460.9030  4.782422E-19
   461.1405  4.474952E-19
   461.3780  4.218050E-19
   461.6155  3.930474E-19
   461.8530  3.675172E-19
   462.0904  3.594922E-19
   462.3278  3.671291E-19
   462.5652  3.965133E-19
   462.8025  4.741545E-19
   463.0398  5.629314E-19
   463.2771  5.955807E-19
   463.5144  5.754187E-19
   463.7516  5.247946E-19
   463.9888  4.758943E-19
   464.2260  4.527529E-19
   464.4631  4.461459E-19
   464.7002  4.325422E-19
   464.9373  4.012261E-19
   465.1744  3.621074E-19
   465.4114  3.188962E-19
   465.6484  2.833339E-19
   465.8854  2.672293E-19
   466.1223  2.741260E-19
   466.3593  3.086816E-19
   466.5962  3.662208E-19
   466.8330  4.288185E-19
   467.0699  4.634709E-19
   467.3067  4.508611E-19
   467.5435  4.271004E-19
   467.7802  4.244707E-19
   468.0170  4.275173E-19
   468.2537  4.007011E-19
   468.4904  3.609326E-19
   468.7270  3.413413E-19
   468.9637  3.330545E-19
   469.2003  3.201166E-19
   469.4369  3.006757E-19
   469.6734  2.845239E-19
   469.9100  2.923969E-19
   470.1465  3.145795E-19
   470.3830  3.296302E-19
   470.6194  3.269205E-19
   470.8558  3.117906E-19
   471.0922  3.022434E-19
   471.3286  3.028564E-19
   471.5650  3.128454E-19
   471.8013  3.359379E-19
   472.0376  3.517120E-19
   472.2739  3.475626E-19
   472.5102  3.351960E-19
   472.7464  3.317365E-19
   472.9826  3.331610E-19
   473.2188  3.436997E-19
   473.4550  3.832817E-19
   473.6911  4.506050E-19
   473.9272  5.187150E-19
   474.1633  5.291713E-19
   474.3994  4.928287E-19
   474.6355  4.839530E-19
   474.8715  4.933425E-19
   475.1075  4.796299E-19
   475.3435  4.518166E-19
   475.5794  4.134478E-19
   475.8154  3.784153E-19
   476.0513  3.597106E-19
   476.2872  3.451402E-19
   476.5230  3.289411E-19
   476.7589  3.176694E-19
   476.9947  3.120267E-19
   477.2305  3.092778E-19
   477.4663  3.104662E-19
   477.7021  3.113521E-19
   477.9378  3.099732E-19
   478.1735  3.012871E-19
   478.4092  2.956124E-19
   478.6449  3.017096E-19
   478.8805  3.148060E-19
   479.1162  3.331129E-19
   479.3518  3.719243E-19
   479.5874  4.173459E-19
   479.8230  4.362226E-19
   480.0585  4.114495E-19
   480.2940  3.740274E-19
   480.5296  3.610199E-19
   480.7650  3.537782E-19
   481.0005  3.453706E-19
   481.2360  3.565264E-19
   481.4714  3.634447E-19
   481.7068  3.442927E-19
   481.9422  3.151669E-19
   482.1776  2.885060E-19
   482.4129  2.727656E-19
   482.6483  2.642467E-19
   482.8836  2.467649E-19
   483.1189  2.269839E-19
   483.3542  2.181233E-19
   483.5894  2.145805E-19
   483.8247  2.150759E-19
   484.0599  2.256338E-19
   484.2951  2.396113E-19
   484.5303  2.535960E-19
   484.7655  2.645324E-19
   485.0006  2.702311E-19
   485.2358  2.705256E-19
   485.4709  2.658889E-19
   485.7060  2.676655E-19
   485.9411  2.746350E-19
   486.1762  2.749647E-19
   486.4112  2.568338E-19
   486.6462  2.385621E-19
   486.8813  2.383845E-19
   487.1163  2.343111E-19
   487.3512  2.317591E-19
   487.5862  2.483830E-19
   487.8212  2.763940E-19
   488.0561  3.078917E-19
   488.2910  3.578052E-19
   488.5259  4.214041E-19
   488.7608  4.805510E-19
   488.9957  4.896781E-19
   489.2305  4.475304E-19
   489.4654  4.148571E-19
   489.7002  3.878760E-19
   489.9350  3.480083E-19
   490.1698  3.234129E-19
   490.4046  3.085159E-19
   490.6394  2.816053E-19
   490.8741  2.493738E-19
   491.1089  2.217869E-19
   491.3436  2.047388E-19
   491.5783  2.046636E-19
   491.8130  2.215228E-19
   492.0477  2.417672E-19
   492.2824  2.412822E-19
   492.5170  2.279802E-19
   492.7517  2.252873E-19
   492.9863  2.368672E-19
   493.2209  2.606487E-19
   493.4555  2.851577E-19
   493.6901  2.939951E-19
   493.9247  3.004916E-19
   494.1592  3.159408E-19
   494.3938  3.378449E-19
   494.6283  3.542008E-19
   494.8628  3.523386E-19
   495.0974  3.332370E-19
   495.3319  3.167147E-19
   495.5664  3.211786E-19
   495.8008  3.306817E-19
   496.0353  3.301439E-19
   496.2698  3.270037E-19
   496.5042  3.242028E-19
   496.7386  3.162353E-19
   496.9731  2.908228E-19
   497.2075  2.572828E-19
   497.4419  2.322152E-19
   497.6763  2.127935E-19
   497.9106  2.034696E-19
   498.1450  1.956926E-19
   498.3794  1.817375E-19
   498.6137  1.716678E-19
   498.8480  1.659435E-19
   499.0824  1.591348E-19
   499.3167  1.494788E-19
   499.5510  1.390865E-19
   499.7853  1.367249E-19
   500.0196  1.386375E-19
   500.2539  1.409303E-19
   500.4881  1.466498E-19
   500.7224  1.539603E-19
   500.9566  1.641053E-19
   501.1909  1.724608E-19
   501.4251  1.700256E-19
   501.6593  1.694286E-19
   501.8936  1.829387E-19
   502.1278  2.052310E-19
   502.3620  2.345104E-19
   502.5962  2.614834E-19
   502.8304  2.870752E-19
   503.0645  2.861773E-19
   503.2987  2.538280E-19
   503.5329  2.240581E-19
   503.7670  2.114931E-19
   504.0012  2.167420E-19
   504.2353  2.449595E-19
   504.4694  2.854170E-19
   504.7036  3.271966E-19
   504.9377  3.430915E-19
   505.1718  3.213650E-19
   505.4059  2.884028E-19
   505.6400  2.543194E-19
   505.8741  2.273440E-19
   506.1082  2.197126E-19
   506.3423  2.250720E-19
   506.5764  2.242758E-19
   506.8104  2.147350E-19
   507.0445  2.016666E-19
   507.2786  1.867928E-19
   507.5126  1.782740E-19
   507.7467  1.744711E-19
   507.9807  1.777810E-19
   508.2147  1.850050E-19
   508.4488  1.996371E-19
   508.6828  2.141084E-19
   508.9168  2.246415E-19
   509.1509  2.426699E-19
   509.3849  2.513704E-19
   509.6189  2.606063E-19
   509.8529  2.738755E-19
   510.0869  2.675774E-19
   510.3209  2.539969E-19
   510.5549  2.457685E-19
   510.7889  2.420961E-19
   511.0229  2.415159E-19
   511.2569  2.471266E-19
   511.4909  2.470170E-19
   511.7249  2.314902E-19
   511.9588  2.263773E-19
   512.1928  2.373489E-19
   512.4268  2.457005E-19
   512.6608  2.437855E-19
   512.8947  2.245655E-19
   513.1287  2.034128E-19
   513.3627  1.880613E-19
   513.5967  1.769455E-19
   513.8306  1.686172E-19
   514.0646  1.582833E-19
   514.2985  1.565427E-19
   514.5325  1.575519E-19
   514.7665  1.511641E-19
   515.0004  1.423788E-19
   515.2344  1.357126E-19
   515.4683  1.358142E-19
   515.7023  1.393890E-19
   515.9362  1.363872E-19
   516.1702  1.319185E-19
   516.4042  1.334990E-19
   516.6381  1.299682E-19
   516.8721  1.196848E-19
   517.1060  1.146567E-19
   517.3400  1.182019E-19
   517.5739  1.189133E-19
   517.8079  1.227594E-19
   518.0418  1.399172E-19
   518.2758  1.667773E-19
   518.5098  1.941193E-19
   518.7437  1.977405E-19
   518.9777  1.796048E-19
   519.2117  1.737325E-19
   519.4456  1.783132E-19
   519.6796  1.779067E-19
   519.9136  1.830532E-19
   520.1475  1.878012E-19
   520.3815  1.775481E-19
   520.6155  1.647375E-19
   520.8494  1.623175E-19
   521.0834  1.574846E-19
   521.3174  1.459912E-19
   521.5514  1.401364E-19
   521.7854  1.386856E-19
   522.0194  1.369346E-19
   522.2534  1.352684E-19
   522.4874  1.344281E-19
   522.7214  1.415457E-19
   522.9554  1.502798E-19
   523.1894  1.529855E-19
   523.4234  1.419090E-19
   523.6574  1.304932E-19
   523.8914  1.326019E-19
   524.1254  1.389128E-19
   524.3595  1.476109E-19
   524.5935  1.612115E-19
   524.8275  1.890064E-19
   525.0616  2.179440E-19
   525.2956  2.338077E-19
   525.5297  2.332556E-19
   525.7637  2.184474E-19
   525.9978  2.107008E-19
   526.2319  2.133009E-19
   526.4659  2.165876E-19
   526.7000  2.129168E-19
   526.9341  1.910286E-19
   527.1682  1.657666E-19
   527.4023  1.605305E-19
   527.6364  1.718310E-19
   527.8705  1.816343E-19
   528.1046  1.827259E-19
   528.3387  1.751241E-19
   528.5728  1.636923E-19
   528.8070  1.536193E-19
   529.0411  1.478622E-19
   529.2753  1.466282E-19
   529.5094  1.418562E-19
   529.7436  1.367993E-19
   529.9777  1.416321E-19
   530.2119  1.515995E-19
   530.4461  1.570789E-19
   530.6803  1.499509E-19
   530.9145  1.410904E-19
   531.1487  1.426029E-19
   531.3829  1.451029E-19
   531.6171  1.450477E-19
   531.8514  1.451413E-19
   532.0856  1.454790E-19
   532.3199  1.487833E-19
   532.5541  1.552831E-19
   532.7884  1.548173E-19
   533.0227  1.456951E-19
   533.2570  1.403301E-19
   533.4913  1.316576E-19
   533.7256  1.183211E-19
   533.9599  1.163453E-19
   534.1942  1.182075E-19
   534.4285  1.158187E-19
   534.6629  1.091365E-19
   534.8972  9.983817E-20
   535.1316  8.639928E-20
   535.3660  7.351489E-20
   535.6004  7.045539E-20
   535.8348  7.240772E-20
   536.0692  7.679983E-20
   536.3036  8.329904E-20
   536.5380  8.471552E-20
   536.7725  7.900633E-20
   537.0069  7.380683E-20
   537.2414  7.466752E-20
   537.4758  7.613137E-20
   537.7103  7.790916E-20
   537.9448  8.917941E-20
   538.1793  1.070782E-19
   538.4139  1.236949E-19
   538.6484  1.303188E-19
   538.8829  1.254787E-19
   539.1175  1.252939E-19
   539.3521  1.286358E-19
   539.5866  1.175969E-19
   539.8212  1.017180E-19
   540.0558  9.100002E-20
   540.2905  7.954451E-20
   540.5251  6.892776E-20
   540.7598  6.545156E-20
   540.9944  6.973027E-20
   541.2291  7.884115E-20
   541.4638  9.240689E-20
   541.6985  1.124032E-19
   541.9332  1.275410E-19
   542.1679  1.360831E-19
   542.4027  1.434311E-19
   542.6374  1.422179E-19
   542.8722  1.419755E-19
   543.1070  1.475093E-19
   543.3418  1.473204E-19
   543.5766  1.429414E-19
   543.8114  1.349275E-19
   544.0463  1.257100E-19
   544.2811  1.193375E-19
   544.5160  1.173424E-19
   544.7509  1.238886E-19
   544.9858  1.386559E-19
   545.2207  1.551431E-19
   545.4557  1.544524E-19
   545.6906  1.373091E-19
   545.9256  1.228899E-19
   546.1606  1.178058E-19
   546.3956  1.133819E-19
   546.6306  1.024254E-19
   546.8656  9.751099E-20
   547.1007  1.059842E-19
   547.3358  1.219384E-19
   547.5708  1.331613E-19
   547.8059  1.355477E-19
   548.0411  1.323658E-19
   548.2762  1.254827E-19
   548.5113  1.204178E-19
   548.7465  1.224969E-19
   548.9817  1.287326E-19
   549.2169  1.360847E-19
   549.4521  1.356061E-19
   549.6874  1.229635E-19
   549.9226  1.095318E-19
   550.1579  9.995021E-20
   550.3932  9.518061E-20
   550.6285  9.131372E-20
   550.8638  8.777414E-20
   551.0992  8.171611E-20
   551.3346  7.656039E-20
   551.5699  7.742388E-20
   551.8053  8.111431E-20
   552.0408  8.390244E-20
   552.2762  8.973879E-20
   552.5117  9.711806E-20
   552.7472  1.008129E-19
   552.9827  1.107194E-19
   553.2182  1.211901E-19
   553.4537  1.142934E-19
   553.6893  9.963250E-20
   553.9249  9.474287E-20
   554.1605  9.394740E-20
   554.3961  8.859041E-20
   554.6317  8.063975E-20
   554.8674  7.131320E-20
   555.1031  6.461912E-20
   555.3388  6.175024E-20
   555.5745  5.790447E-20
   555.8102  5.273963E-20
   556.0460  5.046503E-20
   556.2818  5.298155E-20
   556.5176  5.774154E-20
   556.7534  5.893394E-20
   556.9893  5.769704E-20
   557.2251  5.713398E-20
   557.4610  5.676001E-20
   557.6969  5.741191E-20
   557.9329  6.032960E-20
   558.1688  6.467722E-20
   558.4048  6.429453E-20
   558.6408  5.930926E-20
   558.8768  5.496613E-20
   559.1129  5.005441E-20
   559.3489  4.544351E-20
   559.5850  4.565638E-20
   559.8211  4.698194E-20
   560.0573  4.928103E-20
   560.2934  5.288192E-20
   560.5296  5.540812E-20
   560.7658  5.708316E-20
   561.0020  5.904774E-20
   561.2383  6.162644E-20
   561.4746  6.285357E-20
   561.7109  6.462264E-20
   561.9472  6.515786E-20
   562.1835  6.320385E-20
   562.4199  6.375091E-20
   562.6563  7.019570E-20
   562.8927  7.778984E-20
   563.1291  8.273885E-20
   563.3656  9.178188E-20
   563.6021  1.099343E-19
   563.8386  1.216391E-19
   564.0752  1.157339E-19
   564.3117  1.182371E-19
   564.5483  1.308413E-19
   564.7849  1.278291E-19
   565.0215  1.132667E-19
   565.2582  1.020093E-19
   565.4949  9.747898E-20
   565.7316  8.978281E-20
   565.9683  7.365422E-20
   566.2051  5.865168E-20
   566.4419  5.115286E-20
   566.6787  5.059523E-20
   566.9155  5.079666E-20
   567.1524  5.195008E-20
   567.3893  6.070245E-20
   567.6262  7.018322E-20
   567.8632  7.593290E-20
   568.1001  8.229551E-20
   568.3371  8.562222E-20
   568.5742  7.956988E-20
   568.8112  6.998715E-20
   569.0483  6.671342E-20
   569.2854  6.684138E-20
   569.5225  6.529694E-20
   569.7597  6.634017E-20
   569.9968  7.349929E-20
   570.2341  8.121755E-20
   570.4713  8.837754E-20
   570.7086  9.958689E-20
   570.9458  1.030272E-19
   571.1832  9.801276E-20
   571.4205  9.469725E-20
   571.6579  9.556954E-20
   571.8953  9.830966E-20
   572.1327  9.981816E-20
   572.3702  9.513580E-20
   572.6077  8.229471E-20
   572.8452  7.110441E-20
   573.0827  6.846240E-20
   573.3203  6.791966E-20
   573.5579  6.296961E-20
   573.7955  5.803276E-20
   574.0332  5.332334E-20
   574.2709  4.799988E-20
   574.5086  4.436115E-20
   574.7463  4.226541E-20
   574.9841  4.252501E-20
   575.2219  4.205326E-20
   575.4597  3.958835E-20
   575.6976  3.573154E-20
   575.9355  3.081038E-20
   576.1734  2.698270E-20
   576.4113  2.480325E-20
   576.6493  2.403555E-20
   576.8873  2.425555E-20
   577.1253  2.566826E-20
   577.3634  2.694156E-20
   577.6015  2.842646E-20
   577.8396  3.233441E-20
   578.0778  3.552835E-20
   578.3160  3.807233E-20
   578.5542  4.416548E-20
   578.7924  5.195128E-20
   579.0307  5.727074E-20
   579.2690  5.839544E-20
   579.5073  5.582778E-20
   579.7457  5.399533E-20
   579.9841  5.329381E-20
   580.2225  5.185261E-20
   580.4610  4.986931E-20
   580.6995  4.584892E-20
   580.9380  3.987493E-20
   581.1766  3.441918E-20
   581.4151  3.125605E-20
   581.6538  3.081822E-20
   581.8924  3.155639E-20
   582.1311  3.068698E-20
   582.3698  2.865406E-20
   582.6085  2.740444E-20
   582.8473  2.872048E-20
   583.0861  3.135744E-20
   583.3249  3.224182E-20
   583.5638  3.197229E-20
   583.8027  3.326528E-20
   584.0416  3.608190E-20
   584.2806  3.929890E-20
   584.5196  4.409018E-20
   584.7586  5.148009E-20
   584.9977  5.778483E-20
   585.2368  6.109450E-20
   585.4759  6.446259E-20
   585.7151  6.446811E-20
   585.9543  5.814447E-20
   586.1935  5.413553E-20
   586.4327  5.351285E-20
   586.6720  5.304173E-20
   586.9114  5.292929E-20
   587.1507  5.112509E-20
   587.3901  4.754213E-20
   587.6295  4.382273E-20
   587.8690  4.033436E-20
   588.1085  3.738097E-20
   588.3480  3.534469E-20
   588.5875  3.401201E-20
   588.8271  3.371751E-20
   589.0668  3.604485E-20
   589.3064  4.110806E-20
   589.5461  4.661726E-20
   589.7858  4.941484E-20
   590.0256  5.142847E-20
   590.2654  5.585859E-20
   590.5052  6.073638E-20
   590.7451  6.043820E-20
   590.9850  5.702674E-20
   591.2249  5.525215E-20
   591.4648  5.993619E-20
   591.7048  6.777073E-20
   591.9449  7.225311E-20
   592.1849  7.667275E-20
   592.4250  7.853881E-20
   592.6652  7.514456E-20
   592.9053  7.690298E-20
   593.1455  7.910724E-20
   593.3858  7.004605E-20
   593.6260  6.038754E-20
   593.8664  5.443139E-20
   594.1067  4.533595E-20
   594.3471  3.785841E-20
   594.5875  3.582197E-20
   594.8279  3.480907E-20
   595.0684  3.167683E-20
   595.3089  2.806042E-20
   595.5495  2.509439E-20
   595.7901  2.365959E-20
   596.0307  2.383029E-20
   596.2714  2.628735E-20
   596.5120  2.701359E-20
   596.7528  2.597500E-20
   596.9935  2.631816E-20
   597.2343  2.773895E-20
   597.4752  2.831883E-20
   597.7161  2.872264E-20
   597.9570  2.870119E-20
   598.1979  2.757114E-20
   598.3811  2.800376E-20
   598.6053  3.103917E-20
   598.8294  3.403690E-20
   599.0535  3.602420E-20
   599.2775  3.604485E-20
   599.5015  3.679470E-20
   599.7254  4.060253E-20
   599.9492  4.444582E-20
   600.1731  4.432466E-20
   600.3968  4.397622E-20
   600.6205  4.421406E-20
   600.8442  4.292459E-20
   601.0678  4.152580E-20
   601.2913  4.150947E-20
   601.5148  4.275981E-20
   601.7383  4.132317E-20
   601.9617  3.992767E-20
   602.1850  3.724869E-20
   602.4083  3.367157E-20
   602.6316  3.094578E-20
   602.8548  2.765997E-20
   603.0779  2.445097E-20
   603.3010  2.042459E-20
   603.5240  1.677697E-20
   603.7470  1.494331E-20
   603.9700  1.394498E-20
   604.1929  1.275866E-20
   604.4157  1.210301E-20
   604.6385  1.156427E-20
   604.8612  1.145511E-20
   605.0839  1.280276E-20
   605.3066  1.524974E-20
   605.5291  1.711660E-20
   605.7517  1.744191E-20
   605.9742  1.591548E-20
   606.1966  1.355621E-20
   606.4190  1.281476E-20
   606.6413  1.379165E-20
   606.8636  1.528103E-20
   607.0859  1.574022E-20
   607.3080  1.527991E-20
   607.5302  1.568108E-20
   607.7523  1.725505E-20
   607.9743  1.921610E-20
   608.1963  1.896002E-20
   608.4182  1.736781E-20
   608.6401  1.708115E-20
   608.8620  1.676568E-20
   609.0838  1.603336E-20
   609.3055  1.601495E-20
   609.5272  1.584137E-20
   609.7489  1.546605E-20
   609.9705  1.545188E-20
   610.1920  1.589723E-20
   610.4135  1.650280E-20
   610.6350  1.672815E-20
   610.8564  1.800762E-20
   611.0777  2.167821E-20
   611.2990  2.643083E-20
   611.5203  3.238146E-20
   611.7415  3.774053E-20
   611.9627  4.113239E-20
   612.1838  4.651811E-20
   612.4049  5.251859E-20
   612.6259  5.754531E-20
   612.8469  6.061810E-20
   613.0678  5.175058E-20
   613.2887  3.843205E-20
   613.5095  3.197093E-20
   613.7303  3.159608E-20
   613.9510  3.275335E-20
   614.1717  3.219644E-20
   614.3924  3.122052E-20
   614.6129  2.906916E-20
   614.8335  2.606871E-20
   615.0540  2.448722E-20
   615.2745  2.492249E-20
   615.4949  2.608800E-20
   615.7152  2.903747E-20
   615.9355  3.175677E-20
   616.1558  3.319502E-20
   616.3760  3.493808E-20
   616.5962  3.822286E-20
   616.8163  4.203517E-20
   617.0364  4.188560E-20
   617.2565  3.829536E-20
   617.4765  3.538615E-20
   617.6964  3.410196E-20
   617.9163  3.298551E-20
   618.1361  2.992728E-20
   618.3560  2.547179E-20
   618.5757  2.120405E-20
   618.7954  1.911319E-20
   619.0151  1.899723E-20
   619.2347  1.944794E-20
   619.4543  2.024021E-20
   619.6739  2.209306E-20
   619.8933  2.369648E-20
   620.1128  2.536912E-20
   620.3322  2.936101E-20
   620.5515  3.307137E-20
   620.7709  3.344126E-20
   620.9901  3.156151E-20
   621.2093  2.832443E-20
   621.4285  2.456973E-20
   621.6476  2.121661E-20
   621.8667  1.903852E-20
   622.0858  1.776722E-20
   622.3048  1.705370E-20
   622.5237  1.782420E-20
   622.7426  1.920386E-20
   622.9615  1.939648E-20
   623.1803  1.941361E-20
   623.3991  2.053350E-20
   623.6178  2.143012E-20
   623.8365  2.112642E-20
   624.0552  2.023580E-20
   624.2738  1.949187E-20
   624.4923  1.949460E-20
   624.7109  1.920754E-20
   624.9293  1.870785E-20
   625.1478  1.831068E-20
   625.3662  1.840671E-20
   625.5845  1.818688E-20
   625.8028  1.802859E-20
   626.0211  1.757379E-20
   626.2393  1.666477E-20
   626.4574  1.608994E-20
   626.6756  1.620069E-20
   626.8937  1.554616E-20
   627.1117  1.437224E-20
   627.3297  1.341064E-20
   627.5477  1.269512E-20
   627.7656  1.180074E-20
   627.9835  1.101008E-20
   628.2013  1.027375E-20
   628.4191  9.870019E-21
   628.6368  1.010922E-20
   628.8545  1.066709E-20
   629.0722  1.104905E-20
   629.2898  1.097239E-20
   629.5074  1.014547E-20
   629.7249  9.022776E-21
   629.9424  8.062775E-21
   630.1599  7.290797E-21
   630.3773  6.680737E-21
   630.5947  7.281450E-21
   630.8120  8.370318E-21
   631.0293  9.169065E-21
   631.2465  9.840569E-21
   631.4638  1.079641E-20
   631.6809  1.143446E-20
   631.8980  1.158595E-20
   632.1151  1.209244E-20
   632.3322  1.236805E-20
   632.5492  1.197296E-20
   632.7661  1.083466E-20
   632.9831  1.007177E-20
   633.2000  1.024983E-20
   633.4168  1.159396E-20
   633.6336  1.279644E-20
   633.8504  1.303020E-20
   634.0671  1.289807E-20
   634.2838  1.305556E-20
   634.5004  1.307749E-20
   634.7170  1.257612E-20
   634.9336  1.118598E-20
   635.1501  1.063291E-20
   635.3666  1.118414E-20
   635.5830  1.178562E-20
   635.7994  1.174272E-20
   636.0158  1.200689E-20
   636.2321  1.305788E-20
   636.4484  1.355173E-20
   636.6647  1.314936E-20
   636.8809  1.379045E-20
   637.0970  1.403501E-20
   637.3132  1.337999E-20
   637.5293  1.354149E-20
   637.7453  1.446628E-20
   637.9613  1.503831E-20
   638.1773  1.451421E-20
   638.3933  1.276987E-20
   638.6092  1.186453E-20
   638.8250  1.232604E-20
   639.0408  1.286846E-20
   639.2566  1.294313E-20
   639.4724  1.270697E-20
   639.6881  1.333502E-20
   639.9037  1.510825E-20
   640.1194  1.561330E-20
   640.3350  1.436616E-20
   640.5505  1.431486E-20
   640.7661  1.515138E-20
   640.9815  1.516291E-20
   641.1970  1.507232E-20
   641.4124  1.477118E-20
   641.6278  1.486777E-20
   641.8431  1.645814E-20
   642.0584  1.797785E-20
   642.2737  1.848226E-20
   642.4889  2.005686E-20
   642.7041  2.159738E-20
   642.9192  2.125406E-20
   643.1343  2.034184E-20
   643.3494  2.079647E-20
   643.5644  2.124478E-20
   643.7794  1.927212E-20
   643.9944  1.671863E-20
   644.2093  1.467066E-20
   644.4242  1.304108E-20
   644.6391  1.228995E-20
   644.8539  1.283205E-20
   645.0687  1.413368E-20
   645.2834  1.478438E-20
   645.4982  1.499381E-20
   645.7128  1.552999E-20
   645.9275  1.590123E-20
   646.1421  1.770608E-20
   646.3567  2.012665E-20
   646.5712  2.187163E-20
   646.7857  2.368280E-20
   647.0002  2.524580E-20
   647.2146  2.588393E-20
   647.4290  2.522491E-20
   647.6433  2.500812E-20
   647.8577  2.437943E-20
   648.0720  2.179136E-20
   648.2862  1.763846E-20
   648.5004  1.357838E-20
   648.7146  1.116349E-20
   648.9288  1.064748E-20
   649.1429  1.090837E-20
   649.3570  1.097935E-20
   649.5710  1.045814E-20
   649.7850  1.010498E-20
   649.9990  1.026359E-20
   650.2130  1.108995E-20
   650.4269  1.205339E-20
   650.6407  1.217239E-20
   650.8546  1.140237E-20
   651.0684  1.133827E-20
   651.2822  1.166134E-20
   651.4959  1.132699E-20
   651.7096  1.074375E-20
   651.9233  9.917235E-21
   652.1369  9.550312E-21
   652.3506  9.509819E-21
   652.5641  9.631139E-21
   652.7777  9.534067E-21
   652.9912  8.847357E-21
   653.2047  8.196420E-21
   653.4181  7.661145E-21
   653.6315  7.371728E-21
   653.8449  6.866727E-21
   654.0582  6.870825E-21
   654.2716  6.924090E-21
   654.4848  7.305578E-21
   654.6981  7.813860E-21
   654.9113  8.235633E-21
   655.1245  8.323102E-21
   655.3376  8.269004E-21
   655.5508  7.993800E-21
   655.7639  8.489878E-21
   655.9769  9.331039E-21
   656.1899  8.535013E-21
   656.4029  7.141499E-21
   656.6159  6.277322E-21
   656.8288  6.462352E-21
   657.0417  6.783563E-21
   657.2546  6.351731E-21
   657.4674  5.892490E-21
   657.6802  6.031056E-21
   657.8930  5.981735E-21
   658.1058  5.845490E-21
   658.3185  5.771241E-21
   658.5311  5.847186E-21
   658.7438  6.013778E-21
   658.9564  6.082105E-21
   659.1690  6.298001E-21
   659.3816  6.437712E-21
   659.5941  6.407822E-21
   659.8066  6.470907E-21
   660.0191  6.204506E-21
   660.2315  5.742863E-21
   660.4439  4.739632E-21
   660.6563  4.354031E-21
   660.8686  4.361266E-21
   661.0809  4.122714E-21
   661.2932  3.897055E-21
   661.5055  3.510333E-21
   661.7177  3.284818E-21
   661.9299  3.301311E-21
   662.1421  3.166754E-21
   662.3542  2.973314E-21
   662.5663  2.712579E-21
   662.7784  2.716756E-21
   662.9905  2.732017E-21
   663.2025  2.676735E-21
   663.4145  2.579726E-21
   663.6265  2.621204E-21
   663.8384  2.543050E-21
   664.0503  2.698878E-21
   664.2622  2.719709E-21
   664.4740  2.827889E-21
   664.6858  3.478723E-21
   664.8976  4.038622E-21
   665.1094  4.419749E-21
   665.3211  4.648458E-21
   665.5328  4.420429E-21
   665.7445  4.607228E-21
   665.9562  5.235014E-21
   666.1678  6.210844E-21
   666.3794  6.540994E-21
   666.5910  6.853299E-21
   666.8025  7.644123E-21
   667.0140  7.641882E-21
   667.2255  7.510022E-21
   667.4370  7.584711E-21
   667.6484  8.201781E-21
   667.8598  9.095840E-21
   668.0712  9.942843E-21
   668.2825  9.960529E-21
   668.4939  8.994446E-21
   668.7052  8.272445E-21
   668.9164  8.786857E-21
   669.1277  9.756941E-21
   669.3389  9.896908E-21
   669.5501  9.551753E-21
   669.7612  1.061035E-20
   669.9724  1.152409E-20
   670.1835  1.118950E-20
   670.3946  1.053048E-20
   670.6056  9.253093E-21
   670.8167  7.875056E-21
   671.0277  7.270190E-21
   671.2386  7.590401E-21
   671.4496  8.302215E-21
   671.6605  8.031805E-21
   671.8714  8.001138E-21
   672.0823  8.322942E-21
   672.2932  8.574866E-21
   672.5040  9.229565E-21
   672.7148  9.831446E-21
   672.9256  9.555754E-21
   673.1363  9.859696E-21
   673.3470  1.151505E-20
   673.5577  1.347322E-20
   673.7684  1.338960E-20
   673.9791  1.131658E-20
   674.1897  1.076536E-20
   674.4003  1.073231E-20
   674.6109  9.730532E-21
   674.8214  9.109365E-21
   675.0319  8.676820E-21
   675.2424  8.886090E-21
   675.4529  9.445957E-21
   675.6634  9.769105E-21
   675.8738  9.743017E-21
   676.0842  9.255574E-21
   676.2946  8.939388E-21
   676.5049  9.325997E-21
   676.7153  1.026031E-20
   676.9256  1.036907E-20
   677.1359  9.450919E-21
   677.3461  9.308391E-21
   677.5564  9.549912E-21
   677.7666  8.402889E-21
   677.9768  6.793911E-21
   678.1870  6.016659E-21
   678.3971  5.701322E-21
   678.6072  5.309030E-21
   678.8173  5.235174E-21
   679.0274  5.350284E-21
   679.2375  5.455311E-21
   679.4475  5.695712E-21
   679.6575  6.057209E-21
   679.8675  5.986505E-21
   680.0775  5.749362E-21
   680.2874  5.600504E-21
   680.4973  5.146072E-21
   680.7072  4.853230E-21
   680.9171  5.062492E-21
   681.1270  4.986459E-21
   681.3368  4.925398E-21
   681.5466  4.432666E-21
   681.7564  4.214097E-21
   681.9662  4.117208E-21
   682.1759  3.884650E-21
   682.3857  4.270683E-21
   682.5954  4.324381E-21
   682.8050  4.140136E-21
   683.0147  4.395821E-21
   683.2243  4.798596E-21
   683.4340  4.951319E-21
   683.6436  4.640191E-21
   683.8531  4.082220E-21
   684.0627  4.012269E-21
   684.2722  3.986588E-21
   684.4818  3.832489E-21
   684.6912  4.097033E-21
   684.9007  4.411346E-21
   685.1102  4.252885E-21
   685.3196  4.309921E-21
   685.5290  5.103754E-21
   685.7384  5.793344E-21
   685.9478  5.375005E-21
   686.1571  4.996790E-21
   686.3665  5.110604E-21
   686.5758  5.093558E-21
   686.7851  4.648858E-21
   686.9944  3.942942E-21
   687.2036  3.449161E-21
   687.4128  3.205559E-21
   687.6221  3.112352E-21
   687.8313  2.971113E-21
   688.0404  2.768613E-21
   688.2496  2.482534E-21
   688.4587  2.276625E-21
   688.6679  2.343151E-21
   688.8770  2.312573E-21
   689.0860  2.438015E-21
   689.2951  2.608264E-21
   689.5042  2.430404E-21
   689.7132  2.332075E-21
   689.9222  2.416712E-21
   690.1312  2.422762E-21
   690.3402  2.544282E-21
   690.5491  2.532414E-21
   690.7580  2.450059E-21
   690.9670  2.483022E-21
   691.1759  2.464984E-21
   691.3847  2.536464E-21
   691.5936  2.537048E-21
   691.8025  2.437695E-21
   692.0113  2.494858E-21
   692.2201  2.625870E-21
   692.4289  2.302850E-21
   692.6377  2.271447E-21
   692.8464  2.255258E-21
   693.0552  2.094940E-21
   693.2639  2.139227E-21
   693.4726  2.063066E-21
   693.6813  2.018827E-21
   693.8900  1.772320E-21
   694.0986  1.804643E-21
   694.3073  2.018283E-21
   694.5159  1.980366E-21
   694.7245  2.143917E-21
   694.9331  2.032063E-21
   695.1417  2.065979E-21
   695.3502  2.406388E-21
   695.5588  2.640851E-21
   695.7673  2.702183E-21
   695.9758  2.802993E-21
   696.1843  2.725287E-21
   696.3928  2.562745E-21
   696.6013  2.813188E-21
   696.8097  3.013943E-21
   697.0181  2.473851E-21
   697.2266  2.435686E-21
   697.4350  2.150439E-21
   697.6434  1.796753E-21
   697.8517  1.810893E-21
   698.0601  1.763421E-21
   698.2684  1.737421E-21
   698.4768  1.807588E-21
   698.6851  1.620870E-21
   698.8934  1.517219E-21
   699.1016  1.414817E-21
   699.3099  1.572061E-21
   699.5182  1.810045E-21
   699.7264  1.963968E-21
   699.9346  2.227825E-21
   700.1428  2.314558E-21
   700.3510  2.395873E-21
   700.5592  2.289717E-21
   700.7674  2.211739E-21
   700.9755  2.298936E-21
   701.1837  2.149582E-21
   701.3918  1.931574E-21
   701.5999  1.967866E-21
   701.8080  2.083800E-21
   702.0161  2.269399E-21
   702.2242  2.506510E-21
   702.4323  2.707353E-21
   702.6403  2.726319E-21
   702.8483  2.508799E-21
   703.0564  2.245230E-21
   703.2644  2.481974E-21
   703.4724  2.902314E-21
   703.6803  3.038488E-21
   703.8883  3.468951E-21
   704.0963  3.974496E-21
   704.3042  4.141816E-21
   704.5121  4.179901E-21
   704.7201  4.287753E-21
   704.9280  4.622625E-21
   705.1359  4.977432E-21
   705.3438  5.471309E-21
   705.5516  6.187980E-21
   705.7595  6.417297E-21
   705.9673  5.737886E-21
   706.1752  5.023879E-21
   706.3830  4.887193E-21
   706.5908  4.864938E-21
   706.7986  5.072495E-21
   707.0064  5.442211E-21
   707.2142  6.587330E-21
   707.4220  7.514560E-21
   707.6297  7.290437E-21
   707.8375  7.412077E-21
   708.0452  6.918737E-21
   708.2529  4.770306E-21
   708.4606  3.446504E-21
   708.6683  3.187345E-21
   708.8760  2.921889E-21
   709.0837  2.765772E-21
   709.2914  3.160720E-21
   709.4990  3.320494E-21
   709.7067  3.502371E-21
   709.9143  3.358875E-21
   710.1220  3.461749E-21
   710.3296  3.693611E-21
   710.5372  4.211968E-21
   710.7448  4.800420E-21
   710.9524  5.531601E-21
   711.1600  5.126193E-21
   711.3675  4.016983E-21
   711.5751  3.764482E-21
   711.7827  3.798950E-21
   711.9902  4.279366E-21
   712.1977  4.363979E-21
   712.4053  4.509947E-21
   712.6128  4.359793E-21
   712.8203  4.112543E-21
   713.0278  3.852656E-21
   713.2353  3.766811E-21
   713.4428  3.946575E-21
   713.6502  4.464428E-21
   713.8577  4.541558E-21
   714.0652  4.077755E-21
   714.2726  3.386236E-21
   714.4800  3.253904E-21
   714.6875  3.659647E-21
   714.8949  3.742155E-21
   715.1023  3.226358E-21
   715.3097  2.630879E-21
   715.5171  2.316646E-21
   715.7245  2.196118E-21
   715.9319  2.001181E-21
   716.1393  1.829355E-21
   716.3467  1.988585E-21
   716.5540  2.108913E-21
   716.7614  2.045156E-21
   716.9687  1.967105E-21
   717.1761  1.911703E-21
   717.3834  1.796809E-21
   717.5907  1.639596E-21
   717.7980  1.612875E-21
   718.0054  1.643525E-21
   718.2127  1.503174E-21
   718.4200  1.452533E-21
   718.6273  1.519756E-21
   718.8346  1.781988E-21
   719.0418  1.828083E-21
   719.2491  1.399724E-21
   719.4564  1.344153E-21
   719.6636  1.356501E-21
   719.8709  1.363016E-21
   720.0782  1.311302E-21
   720.2854  1.319401E-21
   720.4926  1.623279E-21
   720.6999  1.634250E-21
   720.9071  1.839759E-21
   721.1143  1.638556E-21
   721.3216  1.598006E-21
   721.5288  1.520036E-21
   721.7360  1.804955E-21
   721.9432  1.904124E-21
   722.1504  2.051150E-21
   722.3576  2.151559E-21
   722.5648  2.068027E-21
   722.7719  1.900939E-21
   722.9791  1.735028E-21
   723.1863  1.908518E-21
   723.3935  2.206073E-21
   723.6006  2.173647E-21
   723.8078  2.044635E-21
   724.0150  1.907942E-21
   724.2221  1.778090E-21
   724.4293  1.745039E-21
   724.6364  1.549254E-21
   724.8436  1.404565E-21
   725.0507  1.419875E-21
   725.2578  1.323210E-21
   725.4650  1.205963E-21
   725.6721  1.093517E-21
   725.8792  9.922917E-22
   726.0863  9.513100E-22
   726.2935  9.924597E-22
   726.5006  1.001679E-21
   726.7077  9.772226E-22
   726.9148  1.032017E-21
   727.1219  1.078560E-21
   727.3290  8.377280E-22
   727.5361  9.280782E-22
   727.7432  1.023478E-21
   727.9503  1.002391E-21
   728.1574  8.252758E-22
   728.3645  9.062389E-22
   728.5716  9.269258E-22
   728.7787  8.041488E-22
   728.9858  7.666466E-22
   729.1928  7.767796E-22
   729.3999  7.891510E-22
   729.6070  8.655533E-22
   729.8141  6.970186E-22
   730.0212  8.484436E-22
   730.2282  9.561756E-22
   730.4353  9.153860E-22
   730.6424  9.771746E-22
   730.8495  1.084731E-21
   731.0565  1.004304E-21
   731.2636  9.513580E-22
   731.4707  8.824630E-22
   731.6777  1.028344E-21
   731.8848  9.744137E-22
   732.0919  9.082396E-22
   732.2989  9.379055E-22
   732.5060  9.160182E-22
   732.7131  8.666417E-22
   732.9201  8.490998E-22
   733.1272  1.050975E-21
   733.3343  9.825524E-22
   733.5413  1.090941E-21
   733.7484  1.180194E-21
   733.9555  1.136340E-21
   734.1625  1.000430E-21
   734.3696  1.148360E-21
   734.5767  1.457047E-21
   734.7837  1.776410E-21
   734.9908  1.820408E-21
   735.1979  1.732323E-21
   735.4049  1.721559E-21
   735.6120  1.682706E-21
   735.8191  1.789638E-21
   736.0262  1.609818E-21
   736.2332  1.425620E-21
   736.4403  1.341905E-21
   736.6474  1.423468E-21
   736.8545  1.315136E-21
   737.0615  1.461657E-21
   737.2686  1.564819E-21
   737.4757  1.451365E-21
   737.6828  1.442122E-21
   737.8899  1.275682E-21
   738.0970  1.167382E-21
   738.3040  1.183235E-21
   738.5111  1.642589E-21
   738.7182  1.704730E-21
   738.9253  1.823714E-21
   739.1324  1.893233E-21
   739.3395  1.746856E-21
   739.5466  1.546189E-21
   739.7537  1.199185E-21
   739.9609  1.189886E-21
   740.1680  1.382406E-21
   740.3751  1.641349E-21
   740.5822  1.400892E-21
   740.7893  1.349739E-21
   740.9964  1.337775E-21
   741.2036  1.146175E-21
   741.4107  8.139040E-22
   741.6178  8.995567E-22
   741.8250  1.030696E-21
   742.0321  9.943403E-22
   742.2393  9.744937E-22
   742.4464  1.161428E-21
   742.6536  1.210629E-21
   742.8607  1.295361E-21
   743.0679  1.320962E-21
   743.2751  1.516707E-21
   743.4822  1.423076E-21
   743.6894  1.623247E-21
   743.8966  1.721807E-21
   744.1038  2.007271E-21
   744.3110  2.043683E-21
   744.5182  2.321096E-21
   744.7254  2.692004E-21
   744.9326  2.984390E-21
   745.1398  3.172316E-21
   745.3470  3.246597E-21
   745.5542  3.555716E-21
   745.7614  3.635903E-21
   745.9687  3.797733E-21
   746.1759  4.278694E-21
   746.3831  4.127524E-21
   746.5904  4.100002E-21
   746.7976  3.567056E-21
   747.0049  2.643348E-21
   747.2122  1.855300E-21
   747.4194  1.497829E-21
   747.6267  1.478814E-21
   747.8340  1.365032E-21
   748.0413  1.362111E-21
   748.2486  1.163509E-21
   748.4559  9.338241E-22
   748.6632  9.002849E-22
   748.8705  8.337347E-22
   749.0778  1.056841E-21
   749.2852  1.239174E-21
   749.4925  1.116533E-21
   749.6998  1.163397E-21
   749.9072  1.285190E-21
   750.1145  1.098615E-21
   750.3219  1.010090E-21
   750.5293  1.066661E-21
   750.7367  1.103561E-21
   750.9441  1.216086E-21
   751.1514  1.132715E-21
   751.3589  1.293792E-21
   751.5663  1.505287E-21
   751.7737  1.569597E-21
   751.9811  1.392297E-21
   752.1885  1.357742E-21
   752.3960  1.222553E-21
   752.6034  1.254259E-21
   752.8109  1.306981E-21
   753.0184  1.271753E-21
   753.2259  1.183820E-21
   753.4333  1.154186E-21
   753.6408  1.215654E-21
   753.8483  1.226730E-21
   754.0559  1.474733E-21
   754.2634  1.453966E-21
   754.4709  1.342385E-21
   754.6785  1.325947E-21
   754.8860  1.288111E-21
   755.0936  1.278587E-21
   755.3011  1.386840E-21
   755.5087  1.386928E-21
   755.7163  1.508416E-21
   755.9239  1.421115E-21
   756.1315  1.396659E-21
   756.3391  1.195792E-21
   756.5468  1.212557E-21
   756.7544  1.067085E-21
   756.9620  8.480034E-22
   757.1697  7.857602E-22
   757.3774  8.739401E-22
   757.5851  1.178570E-21
   757.7928  8.708591E-22
   758.0005  6.066284E-22
   758.2082  5.886496E-22
   758.4159  6.329348E-22
   758.6236  7.564008E-22
   758.8314  7.509206E-22
   759.0391  6.404157E-22
   759.2469  5.458360E-22
   759.4547  5.253964E-22
   759.6625  4.955736E-22
   759.8703  3.286771E-22
   760.0781  3.058926E-22
   760.2859  3.038840E-22
   760.4938  5.107219E-22
   760.7016  5.124217E-22
   760.9095  2.066043E-22
   761.1174  2.583504E-22
   761.3252  3.998136E-22
   761.5331  3.220556E-22
   761.7411  2.960325E-22
   761.9490  5.259430E-22
   762.1569  5.439770E-22
   762.3649  5.272178E-22
   762.5728  5.472445E-22
   762.7808  4.137215E-22
   762.9888  4.494270E-22
   763.1968  4.826965E-22
   763.4048  5.719400E-22
   763.6128  6.645933E-22
   763.8209  5.628849E-22
   764.0289  8.730838E-22
   764.2370  7.885332E-22
   764.4451  7.350313E-22
   764.6532  5.931655E-22
   764.8613  8.035486E-22
   765.0694  1.053800E-21
   765.2776  1.012915E-21
   765.4857  1.075608E-21
   765.6939  1.099720E-21
   765.9021  1.006184E-21
   766.1103  9.804717E-22
   766.3185  8.752766E-22
   766.5267  1.002623E-21
   766.7349  7.530549E-22
   766.9432  6.395194E-22
   767.1515  5.133492E-22
   767.3597  4.679812E-22
   767.5680  5.830533E-22
   767.7764  7.049692E-22
   767.9847  5.624816E-22
   768.1930  4.445022E-22
   768.4014  3.621098E-22
   768.6098  2.486231E-22
   768.8182  3.683623E-22
   769.0266  3.824038E-22
