#******** NO2 Absorption Cross Sections at 243K ******************
#
#Version 1.0
#Date: August 2000
#
#K. Bogumil, J. Orphal, and J. P. Burrows
#University of Bremen - Institute of Environmental Physics
#P. O. Box 33 04 40
#D-28334 Bremen, Germany
#e-mail: Konstanze.Bogumil@iup.physik.uni-bremen.de
#
#1. column title:	wavelength (vacuum)
#1. column unit:		nm
#2. column title:	absorption cross-section 
#2. column unit:		cm2/molec
#
#Wavelength range:	233 - 890 nm
#Spectral Resolution:	0.22 nm below 310.8 nm, 
#	                0.21 nm between 310.8 nm and 402 nm, 
#			0.52 nm between 402 nm and 599 nm, 
#			0.47 nm between 599 nm and 778.7 nm,
#                        0.62 nm between 778.7 nm and 890 nm (FWHM)
#Number of data points in file:	3577
#
#Experimental:
#
#Light source:   Xenon lamp
#Cell:	        Multiple reflection quartz cell (White optics)
#	        optical pathlength 985 cm
#Temperature:    243K
#Gas mixture:    NO2, N2
#Condition:      Flow measurement
#Total pressure: 100 mbar
#Spectrometer:   SCIAMACHY PFM Satellite Spectrometer 
#		 (Eight channel grating spectrometer)
#
#Note: Spectral Regions are cut and concatenated at 310.8 nm, 402 nm, 
#      565 nm, 599 nm and 778.7 nm. The data are scaled to the integrated 
#	   absorption cross section using the absorption cross section 
#	   measured by Vandaele et al., J. Quant. Spectrosc. Radiat. 
#	   Transfer 59 (3--5), 171--184 (1998)
#
   233.0807  2.305796E-19
   233.2139  2.128356E-19
   233.3470  1.925003E-19
   233.4800  1.758665E-19
   233.6129  1.595862E-19
   233.7458  1.340629E-19
   233.8786  1.191599E-19
   234.0113  1.161870E-19
   234.1439  1.049926E-19
   234.2765  9.783284E-20
   234.4089  9.403214E-20
   234.5413  8.960665E-20
   234.6736  9.034229E-20
   234.8058  9.110184E-20
   234.9380  1.019655E-19
   235.0700  1.166368E-19
   235.2020  1.422039E-19
   235.3339  1.688572E-19
   235.4657  1.882171E-19
   235.5975  1.944464E-19
   235.7292  1.865586E-19
   235.8607  1.613462E-19
   235.9922  1.432557E-19
   236.1237  1.220377E-19
   236.2550  1.171187E-19
   236.3863  1.226176E-19
   236.5175  1.328938E-19
   236.6486  1.373875E-19
   236.7796  1.392555E-19
   236.9106  1.348749E-19
   237.0415  1.359460E-19
   237.1722  1.415528E-19
   237.3030  1.484320E-19
   237.4336  1.597384E-19
   237.5642  1.657046E-19
   237.6946  1.673112E-19
   237.8250  1.610055E-19
   237.9554  1.488795E-19
   238.0856  1.320747E-19
   238.2158  1.140915E-19
   238.3458  9.819045E-20
   238.4759  8.228644E-20
   238.6058  7.016796E-20
   238.7356  5.928915E-20
   238.8654  5.452442E-20
   238.9951  6.017180E-20
   239.1247  7.704713E-20
   239.2542  9.800669E-20
   239.3837  1.088307E-19
   239.5131  1.039875E-19
   239.6424  9.216301E-20
   239.7716  7.698996E-20
   239.9007  6.357872E-20
   240.0298  5.148870E-20
   240.1588  4.280917E-20
   240.2877  3.539585E-20
   240.4165  3.082527E-20
   240.5453  2.621770E-20
   240.6740  2.345180E-20
   240.8026  1.966633E-20
   240.9311  1.522310E-20
   241.0596  1.204737E-20
   241.1879  9.941204E-21
   241.3162  7.665452E-21
   241.4444  7.892502E-21
   241.5726  8.937680E-21
   241.7006  1.154642E-20
   241.8286  1.946926E-20
   241.9565  3.925075E-20
   242.0844  7.712881E-20
   242.2121  1.208132E-19
   242.3398  1.463733E-19
   242.4674  1.420020E-19
   242.5949  1.198868E-19
   242.7224  9.316408E-20
   242.8497  7.136330E-20
   242.9770  5.828382E-20
   243.1043  5.339845E-20
   243.2314  5.249240E-20
   243.3585  4.886088E-20
   243.4855  4.119742E-20
   243.6124  3.291288E-20
   243.7392  2.592152E-20
   243.8660  1.986152E-20
   243.9927  1.576418E-20
   244.1193  1.253180E-20
   244.2459  1.042547E-20
   244.3723  9.962964E-21
   244.4987  1.064826E-20
   244.6250  1.467700E-20
   244.7513  2.510316E-20
   244.8775  3.722491E-20
   245.0036  3.944927E-20
   245.1296  3.256367E-20
   245.2555  2.332509E-20
   245.3814  1.607570E-20
   245.5072  1.108579E-20
   245.6329  7.601864E-21
   245.7586  6.120963E-21
   245.8842  1.132363E-20
   246.0097  2.698379E-20
   246.1351  3.519039E-20
   246.2605  2.842893E-20
   246.3857  2.014703E-20
   246.5109  1.398570E-20
   246.6361  9.630498E-21
   246.7612  6.276316E-21
   246.8862  4.565185E-21
   247.0111  2.712760E-21
   247.1359  1.632679E-21
   247.2607  6.761918E-22
   247.3854  1.527957E-22
   247.5100 -5.148888E-22
   247.6346 -9.011302E-22
   247.7591 -1.014119E-21
   247.8835 -1.192218E-21
   248.0079 -1.292028E-21
   248.1321 -1.442591E-21
   248.2563 -1.607833E-21
   248.3805 -1.619436E-21
   248.5045 -1.301397E-21
   248.6285 -1.438362E-21
   248.7524 -6.910271E-22
   248.8763 -3.391577E-22
   249.0001  1.943006E-21
   249.1238  1.753770E-20
   249.2474  4.418448E-20
   249.3710  5.120682E-20
   249.4945  4.096196E-20
   249.6179  2.926439E-20
   249.7413  2.070164E-20
   249.8646  1.453740E-20
   249.9878  1.006961E-20
   250.1110  7.887835E-21
   250.2341  5.304550E-21
   250.3571  4.336886E-21
   250.4800  3.267498E-21
   250.6029  2.146038E-21
   250.7257  2.290646E-21
   250.8485  1.575963E-21
   250.9711  1.178357E-21
   251.0937  6.929406E-22
   251.2163  8.076849E-22
   251.3387  8.522841E-22
   251.4612  2.454207E-22
   251.5835  3.536715E-22
   251.7058  3.992058E-23
   251.8280  5.307899E-22
   251.9501  3.820218E-23
   252.0722  6.182392E-22
   252.1942  7.113053E-22
   252.3161  1.056454E-21
   252.4380  7.903762E-22
   252.5598  7.911287E-22
   252.6815  1.178409E-21
   252.8032  1.001191E-21
   252.9248  1.348172E-21
   253.0464  1.322812E-21
   253.1678  1.740107E-21
   253.2893  1.582648E-21
   253.4106  1.866957E-21
   253.5319  1.873864E-21
   253.6531  2.138350E-21
   253.7743  2.072731E-21
   253.8954  2.361555E-21
   254.0164  2.771331E-21
   254.1373  2.797192E-21
   254.2582  2.890234E-21
   254.3791  3.032211E-21
   254.4999  3.205812E-21
   254.6206  2.942680E-21
   254.7412  2.994420E-21
   254.8618  3.228220E-21
   254.9823  3.099083E-21
   255.1028  2.973681E-21
   255.2232  3.199786E-21
   255.3435  3.552029E-21
   255.4638  3.690452E-21
   255.5840  3.766005E-21
   255.7042  4.177683E-21
   255.8242  4.433225E-21
   255.9443  4.782306E-21
   256.0642  4.496276E-21
   256.1841  4.608961E-21
   256.3040  4.303260E-21
   256.4238  4.219744E-21
   256.5435  4.386841E-21
   256.6632  3.996416E-21
   256.7828  4.058849E-21
   256.9023  4.188913E-21
   257.0218  4.463800E-21
   257.1412  4.369380E-21
   257.2606  4.737152E-21
   257.3799  4.825032E-21
   257.4992  4.872531E-21
   257.6183  5.474990E-21
   257.7375  5.732171E-21
   257.8566  6.029372E-21
   257.9756  6.284366E-21
   258.0945  6.372048E-21
   258.2134  6.606274E-21
   258.3323  6.286408E-21
   258.4511  6.293467E-21
   258.5698  6.111395E-21
   258.6885  6.157424E-21
   258.8071  6.509550E-21
   258.9256  7.194084E-21
   259.0441  7.648768E-21
   259.1626  8.413458E-21
   259.2810  8.347069E-21
   259.3993  8.611747E-21
   259.5176  8.697270E-21
   259.6358  8.691728E-21
   259.7540  8.430317E-21
   259.8721  8.696745E-21
   259.9901  8.435684E-21
   260.1082  8.637183E-21
   260.2261  8.171356E-21
   260.3440  7.786328E-21
   260.4618  8.010228E-21
   260.5796  7.951948E-21
   260.6974  8.163481E-21
   260.8150  8.230569E-21
   260.9327  8.506098E-21
   261.0502  8.980441E-21
   261.1678  9.387755E-21
   261.2852  9.578169E-21
   261.4026  9.905852E-21
   261.5200  9.960806E-21
   261.6373  9.971482E-21
   261.7546  9.776342E-21
   261.8718  9.938579E-21
   261.9889  9.547775E-21
   262.1060  9.627231E-21
   262.2231  9.723722E-21
   262.3401  1.013372E-20
   262.4571  1.025699E-20
   262.5740  1.063402E-20
   262.6908  1.116910E-20
   262.8076  1.202310E-20
   262.9244  1.222542E-20
   263.0411  1.266271E-20
   263.1577  1.320111E-20
   263.2743  1.321156E-20
   263.3909  1.300405E-20
   263.5074  1.309628E-20
   263.6238  1.297155E-20
   263.7402  1.301432E-20
   263.8566  1.323594E-20
   263.9729  1.360854E-20
   264.0892  1.353224E-20
   264.2054  1.357593E-20
   264.3216  1.346614E-20
   264.4377  1.329918E-20
   264.5538  1.364617E-20
   264.6698  1.371116E-20
   264.7858  1.430101E-20
   264.9017  1.451593E-20
   265.0176  1.491642E-20
   265.1334  1.512964E-20
   265.2492  1.548824E-20
   265.3650  1.585577E-20
   265.4807  1.596346E-20
   265.5963  1.568023E-20
   265.7120  1.555300E-20
   265.8275  1.537157E-20
   265.9431  1.525291E-20
   266.0585  1.512608E-20
   266.1740  1.495072E-20
   266.2894  1.460157E-20
   266.4047  1.454702E-20
   266.5200  1.461644E-20
   266.6353  1.445893E-20
   266.7505  1.516283E-20
   266.8657  1.553392E-20
   266.9808  1.632019E-20
   267.0959  1.655343E-20
   267.2110  1.744687E-20
   267.3260  1.799314E-20
   267.4409  1.806560E-20
   267.5558  1.806449E-20
   267.6707  1.796018E-20
   267.7856  1.765689E-20
   267.9004  1.768594E-20
   268.0151  1.731357E-20
   268.1298  1.755608E-20
   268.2445  1.835764E-20
   268.3592  1.921777E-20
   268.4738  2.009062E-20
   268.5883  2.072090E-20
   268.7028  2.133963E-20
   268.8173  2.195380E-20
   268.9317  2.297652E-20
   269.0461  2.350022E-20
   269.1605  2.374891E-20
   269.2748  2.372313E-20
   269.3891  2.368118E-20
   269.5034  2.369133E-20
   269.6176  2.314955E-20
   269.7317  2.305510E-20
   269.8459  2.292693E-20
   269.9600  2.288248E-20
   270.0740  2.275566E-20
   270.1880  2.285582E-20
   270.3020  2.317335E-20
   270.4160  2.293359E-20
   270.5299  2.291311E-20
   270.6437  2.272794E-20
   270.7576  2.290500E-20
   270.8714  2.271144E-20
   270.9851  2.302430E-20
   271.0989  2.289012E-20
   271.2126  2.289893E-20
   271.3262  2.291690E-20
   271.4399  2.282566E-20
   271.5535  2.267486E-20
   271.6670  2.259634E-20
   271.7805  2.284625E-20
   271.8940  2.290185E-20
   272.0075  2.313520E-20
   272.1209  2.391652E-20
   272.2343  2.464008E-20
   272.3476  2.526943E-20
   272.4610  2.604147E-20
   272.5743  2.641920E-20
   272.6875  2.683742E-20
   272.8007  2.789660E-20
   272.9139  2.860599E-20
   273.0271  2.974252E-20
   273.1402  3.066840E-20
   273.2533  3.134961E-20
   273.3664  3.198018E-20
   273.4794  3.177285E-20
   273.5924  3.163167E-20
   273.7054  3.121036E-20
   273.8183  3.123993E-20
   273.9313  3.152655E-20
   274.0441  3.205555E-20
   274.1570  3.267119E-20
   274.2698  3.317272E-20
   274.3826  3.371234E-20
   274.4954  3.396535E-20
   274.6081  3.432186E-20
   274.7208  3.412351E-20
   274.8335  3.418249E-20
   274.9461  3.407771E-20
   275.0588  3.416539E-20
   275.1713  3.409125E-20
   275.2839  3.376543E-20
   275.3964  3.379186E-20
   275.5090  3.359135E-20
   275.6214  3.311514E-20
   275.7339  3.296527E-20
   275.8463  3.268974E-20
   275.9587  3.285834E-20
   276.0711  3.297216E-20
   276.1834  3.312226E-20
   276.2958  3.344912E-20
   276.4081  3.404143E-20
   276.5203  3.456915E-20
   276.6326  3.504507E-20
   276.7448  3.575731E-20
   276.8570  3.624280E-20
   276.9691  3.650287E-20
   277.0813  3.692698E-20
   277.1934  3.688673E-20
   277.3055  3.699063E-20
   277.4176  3.727736E-20
   277.5296  3.744566E-20
   277.6416  3.718851E-20
   277.7536  3.752302E-20
   277.8656  3.805558E-20
   277.9776  3.866877E-20
   278.0895  3.952417E-20
   278.2014  4.008754E-20
   278.3133  4.048937E-20
   278.4251  4.070569E-20
   278.5370  4.111720E-20
   278.6488  4.139045E-20
   278.7606  4.166989E-20
   278.8723  4.225397E-20
   278.9841  4.324892E-20
   279.0958  4.430454E-20
   279.2075  4.574641E-20
   279.3192  4.710620E-20
   279.4309  4.843374E-20
   279.5425  4.906571E-20
   279.6541  4.905252E-20
   279.7657  4.881509E-20
   279.8773  4.845509E-20
   279.9889  4.785602E-20
   280.1004  4.744194E-20
   280.2119  4.681924E-20
   280.3234  4.613932E-20
   280.4349  4.572115E-20
   280.5464  4.601564E-20
   280.6578  4.658910E-20
   280.7692  4.731435E-20
   280.8807  4.811615E-20
   280.9920  4.858419E-20
   281.1034  4.884974E-20
   281.2148  4.916611E-20
   281.3261  4.967079E-20
   281.4374  5.048979E-20
   281.5487  5.109352E-20
   281.6600  5.105345E-20
   281.7712  5.055723E-20
   281.8825  4.963672E-20
   281.9937  4.850193E-20
   282.1049  4.737088E-20
   282.2161  4.623429E-20
   282.3273  4.569962E-20
   282.4385  4.552706E-20
   282.5496  4.551825E-20
   282.6607  4.588660E-20
   282.7718  4.660170E-20
   282.8829  4.734626E-20
   282.9940  4.856155E-20
   283.1051  4.991417E-20
   283.2161  5.173040E-20
   283.3272  5.326386E-20
   283.4382  5.422095E-20
   283.5492  5.479347E-20
   283.6602  5.565285E-20
   283.7712  5.691066E-20
   283.8821  5.873669E-20
   283.9931  6.011171E-20
   284.1040  6.080710E-20
   284.2149  6.112095E-20
   284.3259  6.111687E-20
   284.4367  6.127030E-20
   284.5476  6.155265E-20
   284.6585  6.209519E-20
   284.7693  6.258289E-20
   284.8802  6.324386E-20
   284.9910  6.432894E-20
   285.1018  6.472330E-20
   285.2126  6.512875E-20
   285.3234  6.577980E-20
   285.4342  6.635209E-20
   285.5450  6.694422E-20
   285.6557  6.780878E-20
   285.7665  6.840733E-20
   285.8772  6.891020E-20
   285.9879  6.978935E-20
   286.0986  7.020821E-20
   286.2093  7.037272E-20
   286.3200  7.050748E-20
   286.4307  7.024730E-20
   286.5413  7.020821E-20
   286.6520  6.984535E-20
   286.7626  6.924622E-20
   286.8733  6.882269E-20
   286.9839  6.815706E-20
   287.0945  6.799838E-20
   287.2051  6.786479E-20
   287.3157  6.786770E-20
   287.4263  6.841841E-20
   287.5369  6.913538E-20
   287.6474  6.988444E-20
   287.7580  7.032605E-20
   287.8685  7.055474E-20
   287.9791  7.046490E-20
   288.0896  7.023796E-20
   288.2001  7.034822E-20
   288.3106  7.114511E-20
   288.4211  7.204410E-20
   288.5316  7.281707E-20
   288.6421  7.387007E-20
   288.7526  7.480463E-20
   288.8630  7.547843E-20
   288.9735  7.633950E-20
   289.0839  7.738608E-20
   289.1944  7.806688E-20
   289.3048  7.885619E-20
   289.4152  7.964958E-20
   289.5257  8.065357E-20
   289.6361  8.211784E-20
   289.7465  8.369413E-20
   289.8569  8.467128E-20
   289.9673  8.562102E-20
   290.0777  8.670027E-20
   290.1880  8.713197E-20
   290.2984  8.715238E-20
   290.4088  8.714538E-20
   290.5191  8.694820E-20
   290.6295  8.699721E-20
   290.7398  8.757067E-20
   290.8502  8.837106E-20
   290.9605  8.957398E-20
   291.0708  9.152538E-20
   291.1811  9.354911E-20
   291.2915  9.544100E-20
   291.4018  9.693678E-20
   291.5121  9.805686E-20
   291.6224  9.879658E-20
   291.7327  9.923645E-20
   291.8429  9.939221E-20
   291.9532  9.980466E-20
   292.0635  1.003997E-19
   292.1738  1.009930E-19
   292.2840  1.021201E-19
   292.3943  1.037763E-19
   292.5046  1.047943E-19
   292.6148  1.050801E-19
   292.7251  1.047721E-19
   292.8353  1.028697E-19
   292.9455  1.010852E-19
   293.0558  9.918219E-20
   293.1660  9.771733E-20
   293.2762  9.641057E-20
   293.3864  9.576536E-20
   293.4967  9.480454E-20
   293.6069  9.410332E-20
   293.7171  9.390380E-20
   293.8273  9.386180E-20
   293.9375  9.392422E-20
   294.0477  9.427191E-20
   294.1579  9.500463E-20
   294.2681  9.656108E-20
   294.3782  9.858132E-20
   294.4884  1.012514E-19
   294.5986  1.038603E-19
   294.7088  1.060351E-19
   294.8189  1.077561E-19
   294.9291  1.085973E-19
   295.0393  1.085127E-19
   295.1494  1.073740E-19
   295.2596  1.052295E-19
   295.3698  1.027058E-19
   295.4799  1.006867E-19
   295.5901  9.895234E-20
   295.7002  9.816478E-20
   295.8103  9.808778E-20
   295.9205  9.889401E-20
   296.0306  1.009959E-19
   296.1408  1.035925E-19
   296.2509  1.067334E-19
   296.3610  1.099793E-19
   296.4711  1.130671E-19
   296.5813  1.163183E-19
   296.6914  1.190555E-19
   296.8015  1.218849E-19
   296.9116  1.243164E-19
   297.0217  1.272309E-19
   297.1318  1.308671E-19
   297.2420  1.340576E-19
   297.3521  1.366741E-19
   297.4622  1.389136E-19
   297.5723  1.399229E-19
   297.6824  1.393453E-19
   297.7925  1.374739E-19
   297.9026  1.344771E-19
   298.0126  1.314050E-19
   298.1227  1.282647E-19
   298.2328  1.263244E-19
   298.3429  1.250094E-19
   298.4530  1.242575E-19
   298.5631  1.240235E-19
   298.6732  1.242021E-19
   298.7832  1.238923E-19
   298.8933  1.239599E-19
   299.0034  1.248093E-19
   299.1135  1.261062E-19
   299.2235  1.272922E-19
   299.3336  1.282711E-19
   299.4437  1.289793E-19
   299.5537  1.295983E-19
   299.6638  1.304611E-19
   299.7738  1.311927E-19
   299.8839  1.313939E-19
   299.9939  1.301846E-19
   300.1040  1.281439E-19
   300.2140  1.260385E-19
   300.3241  1.243240E-19
   300.4341  1.234052E-19
   300.5442  1.233247E-19
   300.6542  1.239086E-19
   300.7643  1.246688E-19
   300.8743  1.251629E-19
   300.9843  1.252434E-19
   301.0944  1.247084E-19
   301.2044  1.243421E-19
   301.3144  1.248012E-19
   301.4244  1.267707E-19
   301.5345  1.291036E-19
   301.6445  1.319481E-19
   301.7545  1.350103E-19
   301.8645  1.379289E-19
   301.9745  1.411381E-19
   302.0845  1.444301E-19
   302.1945  1.468937E-19
   302.3045  1.486438E-19
   302.4145  1.493077E-19
   302.5245  1.494821E-19
   302.6345  1.497020E-19
   302.7445  1.505333E-19
   302.8545  1.522321E-19
   302.9645  1.553806E-19
   303.0745  1.586079E-19
   303.1845  1.611835E-19
   303.2945  1.628980E-19
   303.4044  1.638588E-19
   303.5144  1.635088E-19
   303.6244  1.624815E-19
   303.7343  1.614536E-19
   303.8443  1.599677E-19
   303.9543  1.589036E-19
   304.0642  1.586784E-19
   304.1742  1.581476E-19
   304.2841  1.576231E-19
   304.3941  1.590687E-19
   304.5040  1.600103E-19
   304.6140  1.609110E-19
   304.7239  1.619360E-19
   304.8338  1.635671E-19
   304.9438  1.650950E-19
   305.0537  1.661112E-19
   305.1636  1.663953E-19
   305.2735  1.655530E-19
   305.3834  1.640543E-19
   305.4933  1.627142E-19
   305.6032  1.607588E-19
   305.7131  1.596737E-19
   305.8230  1.583389E-19
   305.9329  1.572381E-19
   306.0428  1.567311E-19
   306.1527  1.571097E-19
   306.2625  1.584463E-19
   306.3724  1.597250E-19
   306.4823  1.617587E-19
   306.5921  1.638985E-19
   306.7020  1.661445E-19
   306.8118  1.684669E-19
   306.9217  1.708191E-19
   307.0315  1.735400E-19
   307.1413  1.758921E-19
   307.2511  1.773932E-19
   307.3610  1.776399E-19
   307.4708  1.772648E-19
   307.5806  1.767316E-19
   307.6904  1.750882E-19
   307.8002  1.723073E-19
   307.9099  1.701459E-19
   308.0197  1.684582E-19
   308.1295  1.676070E-19
   308.2393  1.670190E-19
   308.3490  1.665832E-19
   308.4588  1.669216E-19
   308.5685  1.684908E-19
   308.6782  1.722320E-19
   308.7880  1.769375E-19
   308.8977  1.829837E-19
   309.0074  1.885555E-19
   309.1171  1.930014E-19
   309.2268  1.956739E-19
   309.3365  1.971644E-19
   309.4461  1.980890E-19
   309.5558  1.979059E-19
   309.6655  1.969164E-19
   309.7751  1.953466E-19
   309.8848  1.915891E-19
   309.9944  1.881623E-19
   310.1040  1.854554E-19
   310.2136  1.831429E-19
   310.3232  1.820176E-19
   310.4328  1.817522E-19
   310.5424  1.819137E-19
   310.6520  1.835011E-19
   310.7615  1.853026E-19
   310.8711  1.874016E-19
   310.9108  1.885555E-19
   311.0257  1.899008E-19
   311.1406  1.910138E-19
   311.2555  1.924618E-19
   311.3704  1.940532E-19
   311.4852  1.963605E-19
   311.6001  1.978539E-19
   311.7149  1.978119E-19
   311.8297  1.959352E-19
   311.9444  1.952165E-19
   312.0592  1.955706E-19
   312.1739  1.985044E-19
   312.2886  2.028103E-19
   312.4033  2.076296E-19
   312.5180  2.107320E-19
   312.6326  2.121187E-19
   312.7472  2.110452E-19
   312.8619  2.098388E-19
   312.9764  2.081079E-19
   313.0910  2.065941E-19
   313.2055  2.044933E-19
   313.3201  2.025052E-19
   313.4346  2.003887E-19
   313.5491  1.980237E-19
   313.6635  1.961050E-19
   313.7780  1.956879E-19
   313.8924  1.954568E-19
   314.0068  1.964713E-19
   314.1211  1.974742E-19
   314.2355  1.993695E-19
   314.3498  2.010433E-19
   314.4641  2.044840E-19
   314.5784  2.088156E-19
   314.6927  2.141809E-19
   314.8069  2.187003E-19
   314.9212  2.225903E-19
   315.0354  2.252225E-19
   315.1496  2.267107E-19
   315.2637  2.253940E-19
   315.3779  2.239215E-19
   315.4920  2.209650E-19
   315.6061  2.186169E-19
   315.7202  2.173603E-19
   315.8342  2.161504E-19
   315.9482  2.145315E-19
   316.0622  2.141121E-19
   316.1762  2.134161E-19
   316.2902  2.127604E-19
   316.4041  2.123217E-19
   316.5181  2.132446E-19
   316.6320  2.146254E-19
   316.7458  2.168469E-19
   316.8597  2.200228E-19
   316.9735  2.231112E-19
   317.0873  2.264295E-19
   317.2011  2.301637E-19
   317.3149  2.344731E-19
   317.4286  2.392964E-19
   317.5424  2.440661E-19
   317.6561  2.485943E-19
   317.7697  2.507446E-19
   317.8834  2.521424E-19
   317.9970  2.515065E-19
   318.1106  2.507347E-19
   318.2242  2.498643E-19
   318.3378  2.487635E-19
   318.4513  2.470011E-19
   318.5649  2.443520E-19
   318.6784  2.412822E-19
   318.7918  2.387638E-19
   318.9053  2.366619E-19
   319.0187  2.355552E-19
   319.1321  2.345617E-19
   319.2455  2.344229E-19
   319.3589  2.344101E-19
   319.4722  2.355290E-19
   319.5855  2.378602E-19
   319.6988  2.420762E-19
   319.8121  2.471586E-19
   319.9253  2.525362E-19
   320.0386  2.570060E-19
   320.1518  2.616135E-19
   320.2650  2.647876E-19
   320.3781  2.668376E-19
   320.4912  2.667064E-19
   320.6044  2.642679E-19
   320.7174  2.601393E-19
   320.8305  2.554320E-19
   320.9436  2.524469E-19
   321.0566  2.505772E-19
   321.1696  2.496228E-19
   321.2825  2.491537E-19
   321.3955  2.479275E-19
   321.5084  2.475255E-19
   321.6213  2.479596E-19
   321.7342  2.498398E-19
   321.8471  2.519860E-19
   321.9599  2.552518E-19
   322.0727  2.579896E-19
   322.1855  2.613743E-19
   322.2983  2.638076E-19
   322.4110  2.665856E-19
   322.5237  2.691361E-19
   322.6364  2.719188E-19
   322.7491  2.735826E-19
   322.8618  2.755825E-19
   322.9744  2.760077E-19
   323.0870  2.759173E-19
   323.1996  2.756968E-19
   323.3121  2.751834E-19
   323.4247  2.740972E-19
   323.5372  2.735663E-19
   323.6497  2.720355E-19
   323.7621  2.717491E-19
   323.8746  2.710006E-19
   323.9870  2.693695E-19
   324.0994  2.672157E-19
   324.2118  2.664281E-19
   324.3241  2.656429E-19
   324.4365  2.668476E-19
   324.5488  2.681216E-19
   324.6610  2.708098E-19
   324.7733  2.741538E-19
   324.8855  2.786551E-19
   324.9978  2.840951E-19
   325.1099  2.903757E-19
   325.2221  2.952335E-19
   325.3343  2.991987E-19
   325.4464  3.011991E-19
   325.5585  3.012551E-19
   325.6705  2.990109E-19
   325.7826  2.963682E-19
   325.8946  2.947604E-19
   326.0066  2.941455E-19
   326.1186  2.937004E-19
   326.2306  2.953875E-19
   326.3425  2.975705E-19
   326.4544  3.016681E-19
   326.5663  3.036960E-19
   326.6782  3.026750E-19
   326.7900  3.001339E-19
   326.9018  2.974900E-19
   327.0136  2.947335E-19
   327.1254  2.929461E-19
   327.2372  2.921923E-19
   327.3489  2.938031E-19
   327.4606  2.973523E-19
   327.5723  3.020397E-19
   327.6840  3.054525E-19
   327.7956  3.088139E-19
   327.9072  3.102204E-19
   328.0188  3.107700E-19
   328.1304  3.093728E-19
   328.2419  3.060907E-19
   328.3534  3.030076E-19
   328.4649  3.008607E-19
   328.5764  2.985197E-19
   328.6879  2.976370E-19
   328.7993  2.971160E-19
   328.9107  2.986982E-19
   329.0221  3.018980E-19
   329.1335  3.070702E-19
   329.2448  3.106936E-19
   329.3561  3.151686E-19
   329.4674  3.198403E-19
   329.5787  3.246742E-19
   329.6900  3.277807E-19
   329.8012  3.311613E-19
   329.9124  3.317616E-19
   330.0236  3.308457E-19
   330.1348  3.272941E-19
   330.2459  3.224859E-19
   330.3570  3.169567E-19
   330.4681  3.120837E-19
   330.5792  3.101843E-19
   330.6902  3.105133E-19
   330.8013  3.115540E-19
   330.9123  3.131280E-19
   331.0232  3.152684E-19
   331.1342  3.170704E-19
   331.2451  3.186911E-19
   331.3561  3.195801E-19
   331.4670  3.194804E-19
   331.5778  3.196361E-19
   331.6887  3.191910E-19
   331.7995  3.182827E-19
   331.9103  3.167333E-19
   332.0211  3.163558E-19
   332.1319  3.177915E-19
   332.2426  3.215356E-19
   332.3533  3.294485E-19
   332.4640  3.399610E-19
   332.5747  3.528256E-19
   332.6853  3.645077E-19
   332.7960  3.763742E-19
   332.9066  3.862962E-19
   333.0172  3.932046E-19
   333.1277  3.952371E-19
   333.2383  3.923237E-19
   333.3488  3.839534E-19
   333.4593  3.735874E-19
   333.5698  3.628760E-19
   333.6802  3.540950E-19
   333.7907  3.466523E-19
   333.9011  3.397673E-19
   334.0115  3.328391E-19
   334.1219  3.250849E-19
   334.2322  3.188795E-19
   334.3425  3.163564E-19
   334.4529  3.173802E-19
   334.5631  3.208910E-19
   334.6734  3.270643E-19
   334.7836  3.358149E-19
   334.8939  3.496229E-19
   335.0041  3.639214E-19
   335.1143  3.731271E-19
   335.2244  3.725076E-19
   335.3346  3.651494E-19
   335.4447  3.568217E-19
   335.5548  3.500511E-19
   335.6648  3.459762E-19
   335.7749  3.433836E-19
   335.8849  3.438299E-19
   335.9949  3.466791E-19
   336.1049  3.510113E-19
   336.2149  3.564921E-19
   336.3249  3.616451E-19
   336.4348  3.651074E-19
   336.5447  3.664842E-19
   336.6546  3.669334E-19
   336.7645  3.675209E-19
   336.8743  3.680296E-19
   336.9841  3.673954E-19
   337.0940  3.629507E-19
   337.2037  3.576781E-19
   337.3135  3.527830E-19
   337.4233  3.465105E-19
   337.5330  3.417245E-19
   337.6427  3.377762E-19
   337.7524  3.351621E-19
   337.8620  3.335981E-19
   337.9717  3.347648E-19
   338.0813  3.403297E-19
   338.1909  3.504670E-19
   338.3005  3.647842E-19
   338.4101  3.815131E-19
   338.5196  3.991165E-19
   338.6292  4.125820E-19
   338.7387  4.195254E-19
   338.8482  4.229603E-19
   338.9576  4.248090E-19
   339.0671  4.260376E-19
   339.1765  4.244065E-19
   339.2859  4.204471E-19
   339.3953  4.143993E-19
   339.5047  4.064782E-19
   339.6140  3.983004E-19
   339.7234  3.928447E-19
   339.8327  3.894739E-19
   339.9420  3.882908E-19
   340.0512  3.887517E-19
   340.1605  3.910239E-19
   340.2697  3.920285E-19
   340.3790  3.933819E-19
   340.4882  3.957020E-19
   340.5973  3.988161E-19
   340.7065  4.018479E-19
   340.8156  4.073066E-19
   340.9248  4.140317E-19
   341.0339  4.231377E-19
   341.1430  4.319286E-19
   341.2520  4.380995E-19
   341.3611  4.410706E-19
   341.4701  4.405310E-19
   341.5791  4.387535E-19
   341.6881  4.354183E-19
   341.7971  4.317751E-19
   341.9061  4.267330E-19
   342.0150  4.190645E-19
   342.1239  4.084611E-19
   342.2328  3.986014E-19
   342.3417  3.899873E-19
   342.4506  3.823911E-19
   342.5594  3.770882E-19
   342.6683  3.738680E-19
   342.7771  3.687809E-19
   342.8859  3.636630E-19
   342.9947  3.601557E-19
   343.1034  3.589796E-19
   343.2122  3.607280E-19
   343.3209  3.663809E-19
   343.4296  3.768275E-19
   343.5383  3.869811E-19
   343.6470  3.947167E-19
   343.7556  3.993295E-19
   343.8643  4.031051E-19
   343.9729  4.048797E-19
   344.0815  4.047625E-19
   344.1901  4.037561E-19
   344.2987  4.013701E-19
   344.4072  3.999064E-19
   344.5158  3.999788E-19
   344.6243  4.025707E-19
   344.7328  4.072821E-19
   344.8413  4.115728E-19
   344.9498  4.143269E-19
   345.0582  4.171674E-19
   345.1666  4.187804E-19
   345.2751  4.198748E-19
   345.3835  4.210252E-19
   345.4919  4.192623E-19
   345.6002  4.154721E-19
   345.7086  4.149348E-19
   345.8169  4.181836E-19
   345.9253  4.255027E-19
   346.0336  4.360087E-19
   346.1419  4.450545E-19
   346.2501  4.515253E-19
   346.3584  4.555057E-19
   346.4666  4.571683E-19
   346.5749  4.592714E-19
   346.6831  4.626813E-19
   346.7913  4.653549E-19
   346.8995  4.648030E-19
   347.0076  4.608932E-19
   347.1158  4.532049E-19
   347.2239  4.460591E-19
   347.3320  4.411675E-19
   347.4401  4.374910E-19
   347.5482  4.357217E-19
   347.6563  4.348349E-19
   347.7644  4.349528E-19
   347.8724  4.396723E-19
   347.9805  4.498108E-19
   348.0885  4.671849E-19
   348.1965  4.949064E-19
   348.3045  5.248745E-19
   348.4124  5.460347E-19
   348.5204  5.558605E-19
   348.6283  5.518731E-19
   348.7363  5.390365E-19
   348.8442  5.244253E-19
   348.9521  5.107521E-19
   349.0599  4.952955E-19
   349.1678  4.776064E-19
   349.2757  4.559578E-19
   349.3835  4.366224E-19
   349.4913  4.231627E-19
   349.5992  4.148339E-19
   349.7070  4.105851E-19
   349.8147  4.085013E-19
   349.9225  4.077703E-19
   350.0303  4.095992E-19
   350.1380  4.127903E-19
   350.2458  4.157673E-19
   350.3535  4.213490E-19
   350.4612  4.292386E-19
   350.5689  4.395031E-19
   350.6765  4.487164E-19
   350.7842  4.542970E-19
   350.8919  4.602602E-19
   350.9995  4.658811E-19
   351.1071  4.696806E-19
   351.2147  4.752349E-19
   351.3223  4.776904E-19
   351.4299  4.750074E-19
   351.5375  4.676265E-19
   351.6451  4.579629E-19
   351.7526  4.463998E-19
   351.8601  4.372454E-19
   351.9677  4.353396E-19
   352.0752  4.407259E-19
   352.1827  4.517109E-19
   352.2901  4.627798E-19
   352.3976  4.666465E-19
   352.5051  4.643795E-19
   352.6125  4.575965E-19
   352.7200  4.465165E-19
   352.8274  4.311947E-19
   352.9348  4.172012E-19
   353.0422  4.068119E-19
   353.1496  4.039831E-19
   353.2570  4.063160E-19
   353.3643  4.113488E-19
   353.4717  4.204349E-19
   353.5790  4.321257E-19
   353.6864  4.454442E-19
   353.7937  4.605029E-19
   353.9010  4.788577E-19
   354.0083  4.963858E-19
   354.1156  5.143229E-19
   354.2228  5.333964E-19
   354.3301  5.526531E-19
   354.4374  5.667031E-19
   354.5446  5.718544E-19
   354.6518  5.713952E-19
   354.7591  5.659296E-19
   354.8663  5.602982E-19
   354.9735  5.506474E-19
   355.0806  5.370554E-19
   355.1878  5.234574E-19
   355.2950  5.088193E-19
   355.4021  4.952383E-19
   355.5093  4.842154E-19
   355.6164  4.760686E-19
   355.7236  4.684205E-19
   355.8307  4.608588E-19
   355.9378  4.555915E-19
   356.0449  4.555273E-19
   356.1520  4.602871E-19
   356.2590  4.679421E-19
   356.3661  4.759035E-19
   356.4731  4.831648E-19
   356.5802  4.920169E-19
   356.6872  5.043052E-19
   356.7943  5.201217E-19
   356.9013  5.349155E-19
   357.0083  5.498517E-19
   357.1153  5.657126E-19
   357.2223  5.773072E-19
   357.3292  5.826538E-19
   357.4362  5.801208E-19
   357.5432  5.733040E-19
   357.6501  5.658812E-19
   357.7571  5.538735E-19
   357.8640  5.416879E-19
   357.9709  5.346291E-19
   358.0778  5.292784E-19
   358.1848  5.221104E-19
   358.2917  5.142447E-19
   358.3985  5.078649E-19
   358.5054  5.013568E-19
   358.6123  4.943370E-19
   358.7192  4.878907E-19
   358.8260  4.811288E-19
   358.9329  4.745279E-19
   359.0397  4.663320E-19
   359.1465  4.600858E-19
   359.2534  4.596675E-19
   359.3602  4.626217E-19
   359.4670  4.649179E-19
   359.5738  4.659657E-19
   359.6806  4.669241E-19
   359.7874  4.678039E-19
   359.8942  4.677152E-19
   360.0009  4.659301E-19
   360.1077  4.650171E-19
   360.2144  4.694298E-19
   360.3212  4.786652E-19
   360.4279  4.894512E-19
   360.5347  4.986062E-19
   360.6414  5.082389E-19
   360.7481  5.209577E-19
   360.8548  5.317950E-19
   360.9615  5.387040E-19
   361.0682  5.428979E-19
   361.1749  5.437198E-19
   361.2816  5.423950E-19
   361.3883  5.377589E-19
   361.4950  5.306137E-19
   361.6016  5.230117E-19
   361.7083  5.157919E-19
   361.8149  5.108378E-19
   361.9216  5.085720E-19
   362.0282  5.083398E-19
   362.1348  5.104365E-19
   362.2415  5.137710E-19
   362.3481  5.180834E-19
   362.4547  5.200558E-19
   362.5613  5.221262E-19
   362.6679  5.236972E-19
   362.7745  5.223513E-19
   362.8811  5.207902E-19
   362.9877  5.218543E-19
   363.0943  5.237374E-19
   363.2008  5.212062E-19
   363.3074  5.163414E-19
   363.4140  5.138381E-19
   363.5205  5.111692E-19
   363.6271  5.050927E-19
   363.7336  4.980858E-19
   363.8402  4.900119E-19
   363.9467  4.862818E-19
   364.0532  4.904605E-19
   364.1597  4.999059E-19
   364.2663  5.120378E-19
   364.3728  5.239346E-19
   364.4793  5.350089E-19
   364.5858  5.451526E-19
   364.6923  5.571293E-19
   364.7988  5.707290E-19
   364.9053  5.798641E-19
   365.0118  5.873261E-19
   365.1183  5.980019E-19
   365.2247  6.109587E-19
   365.3312  6.227720E-19
   365.4377  6.286875E-19
   365.5441  6.251114E-19
   365.6506  6.208119E-19
   365.7571  6.145931E-19
   365.8635  6.024939E-19
   365.9700  5.896946E-19
   366.0764  5.757426E-19
   366.1828  5.602854E-19
   366.2893  5.424008E-19
   366.3957  5.259665E-19
   366.5021  5.148596E-19
   366.6086  5.090078E-19
   366.7150  5.081747E-19
   366.8214  5.118441E-19
   366.9278  5.182572E-19
   367.0342  5.293513E-19
   367.1406  5.411402E-19
   367.2470  5.534465E-19
   367.3534  5.667743E-19
   367.4598  5.783613E-19
   367.5662  5.824526E-19
   367.6726  5.810746E-19
   367.7790  5.773293E-19
   367.8854  5.743273E-19
   367.9918  5.746581E-19
   368.0982  5.748850E-19
   368.2045  5.721530E-19
   368.3109  5.666938E-19
   368.4173  5.610526E-19
   368.5236  5.582273E-19
   368.6300  5.563739E-19
   368.7364  5.513446E-19
   368.8427  5.441230E-19
   368.9491  5.436183E-19
   369.0554  5.477673E-19
   369.1618  5.530667E-19
   369.2681  5.603245E-19
   369.3745  5.659057E-19
   369.4808  5.660142E-19
   369.5872  5.623786E-19
   369.6935  5.587873E-19
   369.7999  5.551867E-19
   369.9062  5.521065E-19
   370.0125  5.544301E-19
   370.1189  5.610753E-19
   370.2252  5.643177E-19
   370.3315  5.612357E-19
   370.4379  5.559463E-19
   370.5442  5.479697E-19
   370.6505  5.393066E-19
   370.7569  5.285060E-19
   370.8632  5.178343E-19
   370.9695  5.119562E-19
   371.0758  5.163554E-19
   371.1821  5.289925E-19
   371.2885  5.402371E-19
   371.3948  5.477381E-19
   371.5011  5.585271E-19
   371.6074  5.747321E-19
   371.7137  5.935099E-19
   371.8200  6.103695E-19
   371.9263  6.236646E-19
   372.0326  6.364347E-19
   372.1390  6.431494E-19
   372.2453  6.418660E-19
   372.3516  6.392349E-19
   372.4579  6.424143E-19
   372.5642  6.456346E-19
   372.6705  6.435228E-19
   372.7768  6.356530E-19
   372.8831  6.221012E-19
   372.9894  6.071901E-19
   373.0957  5.938832E-19
   373.2020  5.842925E-19
   373.3083  5.760383E-19
   373.4146  5.698884E-19
   373.5209  5.638796E-19
   373.6272  5.577180E-19
   373.7335  5.575348E-19
   373.8398  5.623091E-19
   373.9461  5.714629E-19
   374.0524  5.770184E-19
   374.1587  5.745326E-19
   374.2650  5.683319E-19
   374.3713  5.586665E-19
   374.4776  5.448522E-19
   374.5839  5.332167E-19
   374.6902  5.274530E-19
   374.7965  5.274495E-19
   374.9028  5.310623E-19
   375.0091  5.381702E-19
   375.1154  5.515044E-19
   375.2217  5.727131E-19
   375.3280  5.937199E-19
   375.4343  6.087360E-19
   375.5406  6.173291E-19
   375.6469  6.230054E-19
   375.7532  6.281858E-19
   375.8595  6.320419E-19
   375.9659  6.321236E-19
   376.0722  6.411776E-19
   376.1785  6.634392E-19
   376.2848  6.877719E-19
   376.3911  7.024613E-19
   376.4974  7.030738E-19
   376.6037  6.940665E-19
   376.7100  6.807655E-19
   376.8163  6.667295E-19
   376.9226  6.495315E-19
   377.0290  6.291017E-19
   377.1353  6.099611E-19
   377.2416  5.956684E-19
   377.3479  5.794266E-19
   377.4542  5.616213E-19
   377.5605  5.476314E-19
   377.6669  5.419931E-19
   377.7732  5.407032E-19
   377.8795  5.407207E-19
   377.9858  5.479056E-19
   378.0922  5.513667E-19
   378.1985  5.461677E-19
   378.3048  5.386766E-19
   378.4112  5.367625E-19
   378.5175  5.404646E-19
   378.6238  5.447839E-19
   378.7302  5.462150E-19
   378.8365  5.503558E-19
   378.9428  5.555641E-19
   379.0492  5.612947E-19
   379.1555  5.687794E-19
   379.2619  5.777943E-19
   379.3682  5.913339E-19
   379.4746  6.099553E-19
   379.5809  6.331270E-19
   379.6872  6.558028E-19
   379.7936  6.708306E-19
   379.9000  6.777728E-19
   380.0063  6.775219E-19
   380.1127  6.702531E-19
   380.2190  6.594839E-19
   380.3254  6.521626E-19
   380.4318  6.473614E-19
   380.5381  6.449812E-19
   380.6445  6.456521E-19
   380.7509  6.462355E-19
   380.8572  6.433069E-19
   380.9636  6.325903E-19
   381.0700  6.228537E-19
   381.1764  6.168041E-19
   381.2827  6.122888E-19
   381.3891  6.089285E-19
   381.4955  6.060816E-19
   381.6019  6.052707E-19
   381.7083  6.080651E-19
   381.8147  6.115012E-19
   381.9211  6.096227E-19
   382.0275  6.049616E-19
   382.1339  6.049674E-19
   382.2403  6.090160E-19
   382.3467  6.043373E-19
   382.4531  5.870111E-19
   382.5595  5.690868E-19
   382.6659  5.590177E-19
   382.7723  5.599791E-19
   382.8787  5.671868E-19
   382.9851  5.700202E-19
   383.0916  5.697151E-19
   383.1980  5.712301E-19
   383.3044  5.795205E-19
   383.4108  5.879153E-19
   383.5173  5.892746E-19
   383.6237  5.875011E-19
   383.7301  5.915206E-19
   383.8366  6.044890E-19
   383.9430  6.187467E-19
   384.0495  6.283900E-19
   384.1559  6.275324E-19
   384.2623  6.193710E-19
   384.3688  6.169616E-19
   384.4753  6.269957E-19
   384.5817  6.394099E-19
   384.6882  6.482423E-19
   384.7946  6.569463E-19
   384.9011  6.657961E-19
   385.0076  6.620625E-19
   385.1140  6.482481E-19
   385.2205  6.312252E-19
   385.3270  6.200827E-19
   385.4334  6.176967E-19
   385.5399  6.165124E-19
   385.6464  6.210278E-19
   385.7529  6.370706E-19
   385.8594  6.455996E-19
   385.9659  6.365164E-19
   386.0724  6.184842E-19
   386.1789  6.014205E-19
   386.2854  5.884403E-19
   386.3919  5.753867E-19
   386.4984  5.656064E-19
   386.6049  5.604371E-19
   386.7114  5.622817E-19
   386.8179  5.721968E-19
   386.9244  5.876003E-19
   387.0309  6.003704E-19
   387.1374  6.100369E-19
   387.2440  6.173700E-19
   387.3505  6.240380E-19
   387.4570  6.305193E-19
   387.5636  6.349646E-19
   387.6701  6.352271E-19
   387.7766  6.356355E-19
   387.8832  6.395966E-19
   387.9897  6.437619E-19
   388.0963  6.401567E-19
   388.2028  6.329286E-19
   388.3093  6.251114E-19
   388.4159  6.168566E-19
   388.5225  6.125338E-19
   388.6290  6.105736E-19
   388.7356  6.118629E-19
   388.8421  6.169850E-19
   388.9487  6.230696E-19
   389.0553  6.349296E-19
   389.1618  6.485748E-19
   389.2684  6.580663E-19
   389.3750  6.592331E-19
   389.4816  6.542977E-19
   389.5882  6.460429E-19
   389.6947  6.335879E-19
   389.8013  6.231512E-19
   389.9079  6.227079E-19
   390.0145  6.292125E-19
   390.1211  6.342121E-19
   390.2277  6.356705E-19
   390.3343  6.411717E-19
   390.4409  6.446837E-19
   390.5475  6.411484E-19
   390.6541  6.330220E-19
   390.7607  6.262723E-19
   390.8673  6.205727E-19
   390.9739  6.182217E-19
   391.0805  6.207769E-19
   391.1872  6.259923E-19
   391.2938  6.309218E-19
   391.4004  6.297784E-19
   391.5070  6.319894E-19
   391.6136  6.495315E-19
   391.7203  6.754976E-19
   391.8269  7.028872E-19
   391.9335  7.155989E-19
   392.0402  7.017321E-19
   392.1468  6.756960E-19
   392.2534  6.534110E-19
   392.3601  6.443161E-19
   392.4667  6.427352E-19
   392.5734  6.414459E-19
   392.6800  6.406234E-19
   392.7867  6.411542E-19
   392.8933  6.398767E-19
   393.0000  6.272874E-19
   393.1066  6.039523E-19
   393.2133  5.811452E-19
   393.3199  5.652756E-19
   393.4266  5.594897E-19
   393.5333  5.651852E-19
   393.6399  5.755495E-19
   393.7466  5.851151E-19
   393.8532  5.897063E-19
   393.9599  5.886212E-19
   394.0666  5.880728E-19
   394.1732  5.847359E-19
   394.2799  5.756020E-19
   394.3866  5.672894E-19
   394.4933  5.656484E-19
   394.5999  5.639986E-19
   394.7066  5.634566E-19
   394.8133  5.657522E-19
   394.9200  5.777272E-19
   395.0267  5.934049E-19
   395.1333  6.043257E-19
   395.2400  6.163257E-19
   395.3467  6.336579E-19
   395.4534  6.552020E-19
   395.5601  6.728724E-19
   395.6668  6.732516E-19
   395.7734  6.724291E-19
   395.8801  6.787762E-19
   395.9868  6.890903E-19
   396.0935  6.816931E-19
   396.2002  6.612457E-19
   396.3069  6.388557E-19
   396.4136  6.239213E-19
   396.5203  6.071084E-19
   396.6270  5.947058E-19
   396.7337  5.820640E-19
   396.8404  5.745478E-19
   396.9470  5.742345E-19
   397.0537  5.772751E-19
   397.1604  5.798145E-19
   397.2671  5.806528E-19
   397.3738  5.752140E-19
   397.4805  5.718252E-19
   397.5872  5.725742E-19
   397.6939  5.921681E-19
   397.8006  6.192018E-19
   397.9073  6.449812E-19
   398.0140  6.765360E-19
   398.1207  6.942065E-19
   398.2274  7.020821E-19
   398.3341  7.113870E-19
   398.4408  7.237429E-19
   398.5475  7.395232E-19
   398.6541  7.336486E-19
   398.7608  7.111536E-19
   398.8675  6.793129E-19
   398.9742  6.396141E-19
   399.0809  6.044774E-19
   399.1876  5.856401E-19
   399.2943  5.765692E-19
   399.4010  5.749486E-19
   399.5076  5.848526E-19
   399.6143  6.033748E-19
   399.7210  6.219845E-19
   399.8277  6.396958E-19
   399.9344  6.589181E-19
   400.0410  6.840849E-19
   400.1477  7.071516E-19
   400.2544  7.140705E-19
   400.3611  7.086626E-19
   400.4677  6.966392E-19
   400.5744  7.011020E-19
   400.6811  6.945157E-19
   400.7877  6.805030E-19
   400.8944  6.788754E-19
   401.0011  6.828832E-19
   401.1077  6.802930E-19
   401.2144  6.850592E-19
   401.3210  6.766760E-19
   401.4277  6.640459E-19
   401.5343  6.546419E-19
   401.6410  6.472330E-19
   401.7476  6.393749E-19
   401.8543  6.350346E-19
   401.9609  6.324036E-19
   402.1007  6.207244E-19
   402.3477  5.943441E-19
   402.5947  5.752490E-19
   402.8416  5.654419E-19
   403.0885  5.613413E-19
   403.3354  5.599681E-19
   403.5821  5.707634E-19
   403.8289  5.993028E-19
   404.0756  6.289967E-19
   404.3223  6.327945E-19
   404.5689  6.229471E-19
   404.8154  6.346729E-19
   405.0620  6.691622E-19
   405.3084  6.922522E-19
   405.5549  6.711048E-19
   405.8013  6.251406E-19
   406.0476  5.961934E-19
   406.2939  5.851151E-19
   406.5402  5.647681E-19
   406.7864  5.336764E-19
   407.0325  5.126545E-19
   407.2787  5.094850E-19
   407.5248  5.239101E-19
   407.7708  5.601226E-19
   408.0168  6.161216E-19
   408.2627  6.797738E-19
   408.5086  7.238420E-19
   408.7545  7.191400E-19
   409.0003  6.833965E-19
   409.2461  6.574480E-19
   409.4918  6.537493E-19
   409.7375  6.491290E-19
   409.9831  6.384940E-19
   410.2287  6.548403E-19
   410.4743  6.926489E-19
   410.7198  7.028755E-19
   410.9652  6.732750E-19
   411.2106  6.269665E-19
   411.4560  5.852084E-19
   411.7013  5.610537E-19
   411.9466  5.537428E-19
   412.1919  5.541745E-19
   412.4371  5.671815E-19
   412.6822  6.008721E-19
   412.9273  6.504533E-19
   413.1724  7.110544E-19
   413.4174  7.682720E-19
   413.6624  7.764918E-19
   413.9073  7.141872E-19
   414.1522  6.329345E-19
   414.3971  5.917014E-19
   414.6419  5.939766E-19
   414.8866  6.072717E-19
   415.1314  6.052357E-19
   415.3760  5.770114E-19
   415.6207  5.347259E-19
   415.8653  5.082360E-19
   416.1098  5.036623E-19
   416.3543  5.081975E-19
   416.5988  5.128855E-19
   416.8432  5.204700E-19
   417.0875  5.390493E-19
   417.3319  5.628581E-19
   417.5762  5.729978E-19
   417.8204  5.764111E-19
   418.0646  5.826427E-19
   418.3087  5.913455E-19
   418.5529  5.975527E-19
   418.7969  5.867777E-19
   419.0410  5.726308E-19
   419.2849  5.867485E-19
   419.5289  6.181692E-19
   419.7728  6.360205E-19
   420.0166  6.341304E-19
   420.2604  6.321527E-19
   420.5042  6.354897E-19
   420.7479  6.401450E-19
   420.9916  6.399583E-19
   421.2353  6.218736E-19
   421.4789  5.993495E-19
   421.7224  6.062392E-19
   421.9659  6.370998E-19
   422.2094  6.511767E-19
   422.4528  6.393983E-19
   422.6962  6.217570E-19
   422.9396  6.088585E-19
   423.1829  6.102936E-19
   423.4261  6.286175E-19
   423.6694  6.474955E-19
   423.9125  6.582238E-19
   424.1557  6.672720E-19
   424.3988  6.790271E-19
   424.6418  6.818273E-19
   424.8848  6.526176E-19
   425.1278  6.003879E-19
   425.3707  5.594640E-19
   425.6136  5.313056E-19
   425.8565  4.977854E-19
   426.0993  4.665980E-19
   426.3420  4.517377E-19
   426.5848  4.500436E-19
   426.8274  4.673098E-19
   427.0701  5.186743E-19
   427.3127  5.834408E-19
   427.5552  6.228946E-19
   427.7977  6.375665E-19
   428.0402  6.439661E-19
   428.2826  6.337804E-19
   428.5250  6.013096E-19
   428.7674  5.611056E-19
   429.0097  5.246469E-19
   429.2520  4.873062E-19
   429.4942  4.554485E-19
   429.7364  4.418751E-19
   429.9785  4.569379E-19
   430.2206  5.078953E-19
   430.4627  5.770312E-19
   430.7047  6.267507E-19
   430.9467  6.450279E-19
   431.1887  6.368898E-19
   431.4306  6.151298E-19
   431.6724  5.843859E-19
   431.9143  5.420228E-19
   432.1560  4.960737E-19
   432.3978  4.607993E-19
   432.6395  4.487105E-19
   432.8812  4.656985E-19
   433.1228  5.012599E-19
   433.3644  5.401251E-19
   433.6059  5.744364E-19
   433.8474  5.976168E-19
   434.0889  5.946300E-19
   434.3303  5.762868E-19
   434.5717  5.884462E-19
   434.8131  6.588247E-19
   435.0544  7.401941E-19
   435.2957  7.472063E-19
   435.5369  6.885769E-19
   435.7781  6.392699E-19
   436.0192  6.113670E-19
   436.2604  5.864627E-19
   436.5014  5.592861E-19
   436.7425  5.303815E-19
   436.9835  4.906367E-19
   437.2244  4.463648E-19
   437.4654  4.161721E-19
   437.7062  4.020247E-19
   437.9471  3.942302E-19
   438.1879  4.001678E-19
   438.4287  4.452278E-19
   438.6694  5.414143E-19
   438.9101  6.465680E-19
   439.1508  7.082309E-19
   439.3914  7.236729E-19
   439.6320  6.931973E-19
   439.8725  6.449229E-19
   440.1130  5.975410E-19
   440.3535  5.288811E-19
   440.5939  4.676464E-19
   440.8343  4.425023E-19
   441.0747  4.344062E-19
   441.3150  4.137984E-19
   441.5553  3.870465E-19
   441.7955  3.700107E-19
   442.0357  3.719213E-19
   442.2759  3.869275E-19
   442.5160  4.006701E-19
   442.7561  4.148963E-19
   442.9962  4.297543E-19
   443.2362  4.386181E-19
   443.4762  4.493336E-19
   443.7161  4.575960E-19
   443.9561  4.692349E-19
   444.1959  5.058120E-19
   444.4358  5.646024E-19
   444.6756  6.361489E-19
   444.9154  6.768277E-19
   445.1551  6.423327E-19
   445.3948  5.843975E-19
   445.6345  5.439106E-19
   445.8741  5.118552E-19
   446.1137  4.826386E-19
   446.3532  4.493132E-19
   446.5928  4.190744E-19
   446.8323  4.111942E-19
   447.0717  4.275445E-19
   447.3111  4.684654E-19
   447.5505  5.439935E-19
   447.7899  6.502491E-19
   448.0292  7.407950E-19
   448.2684  7.474163E-19
   448.5077  6.600790E-19
   448.7469  5.709017E-19
   448.9861  5.201030E-19
   449.2252  4.851529E-19
   449.4643  4.502180E-19
   449.7034  4.186171E-19
   449.9424  4.043465E-19
   450.1814  4.229778E-19
   450.4204  4.528834E-19
   450.6593  4.676971E-19
   450.8982  4.615664E-19
   451.1371  4.481779E-19
   451.3759  4.364672E-19
   451.6147  4.340491E-19
   451.8535  4.540811E-19
   452.0922  4.771531E-19
   452.3309  4.852118E-19
   452.5696  4.917346E-19
   452.8083  4.832015E-19
   453.0469  4.656816E-19
   453.2854  4.696094E-19
   453.5240  4.669953E-19
   453.7625  4.299182E-19
   454.0009  3.922111E-19
   454.2394  3.812115E-19
   454.4778  4.101523E-19
   454.7162  4.526489E-19
   454.9545  4.623866E-19
   455.1928  4.455393E-19
   455.4311  4.246043E-19
   455.6693  4.144273E-19
   455.9076  4.240652E-19
   456.1457  4.247431E-19
   456.3839  3.969925E-19
   456.6220  3.584114E-19
   456.8601  3.436485E-19
   457.0982  3.694851E-19
   457.3362  4.291721E-19
   457.5742  4.906501E-19
   457.8122  5.244194E-19
   458.0501  5.289015E-19
   458.2880  5.116499E-19
   458.5259  4.927817E-19
   458.7637  4.650451E-19
   459.0015  4.194274E-19
   459.2393  3.994607E-19
   459.4771  4.150258E-19
   459.7148  4.330586E-19
   459.9525  4.493808E-19
   460.1901  4.762908E-19
   460.4278  5.055863E-19
   460.6654  5.077401E-19
   460.9030  4.795379E-19
   461.1405  4.520924E-19
   461.3780  4.290718E-19
   461.6155  4.014372E-19
   461.8530  3.762756E-19
   462.0904  3.681795E-19
   462.3278  3.747191E-19
   462.5652  4.024674E-19
   462.8025  4.756048E-19
   463.0398  5.586531E-19
   463.2771  5.884228E-19
   463.5144  5.707658E-19
   463.7516  5.241371E-19
   463.9888  4.780643E-19
   464.2260  4.550834E-19
   464.4631  4.473723E-19
   464.7002  4.336075E-19
   464.9373  4.044626E-19
   465.1744  3.687564E-19
   465.4114  3.275479E-19
   465.6484  2.925488E-19
   465.8854  2.768472E-19
   466.1223  2.835619E-19
   466.3593  3.155029E-19
   466.5962  3.684928E-19
   466.8330  4.264034E-19
   467.0699  4.588578E-19
   467.3067  4.469190E-19
   467.5435  4.249356E-19
   467.7802  4.230606E-19
   468.0170  4.261164E-19
   468.2537  4.003492E-19
   468.4904  3.631368E-19
   468.7270  3.455357E-19
   468.9637  3.386058E-19
   469.2003  3.274791E-19
   469.4369  3.099188E-19
   469.6734  2.941478E-19
   469.9100  3.005778E-19
   470.1465  3.208163E-19
   470.3830  3.351295E-19
   470.6194  3.330555E-19
   470.8558  3.177705E-19
   471.0922  3.079377E-19
   471.3286  3.074809E-19
   471.5650  3.165203E-19
   471.8013  3.381315E-19
   472.0376  3.521360E-19
   472.2739  3.472695E-19
   472.5102  3.354013E-19
   472.7464  3.335036E-19
   472.9826  3.367273E-19
   473.2188  3.480063E-19
   473.4550  3.853430E-19
   473.6911  4.480577E-19
   473.9272  5.120442E-19
   474.1633  5.225030E-19
   474.3994  4.902458E-19
   474.6355  4.822390E-19
   474.8715  4.905894E-19
   475.1075  4.772698E-19
   475.3435  4.513171E-19
   475.5794  4.149085E-19
   475.8154  3.819752E-19
   476.0513  3.644383E-19
   476.2872  3.508275E-19
   476.5230  3.356131E-19
   476.7589  3.246310E-19
   476.9947  3.182920E-19
   477.2305  3.148011E-19
   477.4663  3.159171E-19
   477.7021  3.172075E-19
   477.9378  3.163716E-19
   478.1735  3.087836E-19
   478.4092  3.024184E-19
   478.6449  3.078922E-19
   478.8805  3.203175E-19
   479.1162  3.372028E-19
   479.3518  3.728914E-19
   479.5874  4.150806E-19
   479.8230  4.324886E-19
   480.0585  4.082744E-19
   480.2940  3.728313E-19
   480.5296  3.602887E-19
   480.7650  3.526786E-19
   481.0005  3.452860E-19
   481.2360  3.574378E-19
   481.4714  3.648712E-19
   481.7068  3.466990E-19
   481.9422  3.199150E-19
   482.1776  2.943508E-19
   482.4129  2.784235E-19
   482.6483  2.696454E-19
   482.8836  2.524341E-19
   483.1189  2.335280E-19
   483.3542  2.253485E-19
   483.5894  2.216055E-19
   483.8247  2.222391E-19
   484.0599  2.320830E-19
   484.2951  2.450298E-19
   484.5303  2.577860E-19
   484.7655  2.669636E-19
   485.0006  2.720758E-19
   485.2358  2.727169E-19
   485.4709  2.683375E-19
   485.7060  2.701483E-19
   485.9411  2.777030E-19
   486.1762  2.793347E-19
   486.4112  2.622348E-19
   486.6462  2.447148E-19
   486.8813  2.446868E-19
   487.1163  2.410139E-19
   487.3512  2.386331E-19
   487.5862  2.533406E-19
   487.8212  2.789981E-19
   488.0561  3.083157E-19
   488.2910  3.554823E-19
   488.5259  4.155788E-19
   488.7608  4.706508E-19
   488.9957  4.783350E-19
   489.2305  4.394022E-19
   489.4654  4.097859E-19
   489.7002  3.845660E-19
   489.9350  3.476691E-19
   490.1698  3.247319E-19
   490.4046  3.107087E-19
   490.6394  2.850909E-19
   490.8741  2.550184E-19
   491.1089  2.289707E-19
   491.3436  2.127965E-19
   491.5783  2.124652E-19
   491.8130  2.283960E-19
   492.0477  2.474258E-19
   492.2824  2.469112E-19
   492.5170  2.345542E-19
   492.7517  2.322977E-19
   492.9863  2.428766E-19
   493.2209  2.642912E-19
   493.4555  2.867354E-19
   493.6901  2.951355E-19
   493.9247  3.009938E-19
   494.1592  3.154364E-19
   494.3938  3.363860E-19
   494.6283  3.520404E-19
   494.8628  3.505271E-19
   495.0974  3.316257E-19
   495.3319  3.150636E-19
   495.5664  3.191245E-19
   495.8008  3.286697E-19
   496.0353  3.283728E-19
   496.2698  3.259419E-19
   496.5042  3.244717E-19
   496.7386  3.182261E-19
   496.9731  2.934664E-19
   497.2075  2.608149E-19
   497.4419  2.366327E-19
   497.6763  2.176981E-19
   497.9106  2.082264E-19
   498.1450  2.000935E-19
   498.3794  1.861596E-19
   498.6137  1.764557E-19
   498.8480  1.709159E-19
   499.0824  1.643815E-19
   499.3167  1.549518E-19
   499.5510  1.447719E-19
   499.7853  1.424110E-19
   500.0196  1.438928E-19
   500.2539  1.458838E-19
   500.4881  1.511330E-19
   500.7224  1.581126E-19
   500.9566  1.686991E-19
   501.1909  1.775781E-19
   501.4251  1.756045E-19
   501.6593  1.751571E-19
   501.8936  1.877691E-19
   502.1278  2.085134E-19
   502.3620  2.350156E-19
   502.5962  2.594620E-19
   502.8304  2.836190E-19
   503.0645  2.828245E-19
   503.2987  2.523641E-19
   503.5329  2.243824E-19
   503.7670  2.131092E-19
   504.0012  2.189261E-19
   504.2353  2.466032E-19
   504.4694  2.852233E-19
   504.7036  3.245744E-19
   504.9377  3.396903E-19
   505.1718  3.194471E-19
   505.4059  2.883578E-19
   505.6400  2.553323E-19
   505.8741  2.290453E-19
   506.1082  2.218319E-19
   506.3423  2.270910E-19
   506.5764  2.259278E-19
   506.8104  2.167408E-19
   507.0445  2.046649E-19
   507.2786  1.908983E-19
   507.5126  1.827276E-19
   507.7467  1.795756E-19
   507.9807  1.832532E-19
   508.2147  1.903902E-19
   508.4488  2.043294E-19
   508.6828  2.180143E-19
   508.9168  2.278459E-19
   509.1509  2.451547E-19
   509.3849  2.526091E-19
   509.6189  2.609648E-19
   509.8529  2.743562E-19
   510.0869  2.685218E-19
   510.3209  2.555271E-19
   510.5549  2.472379E-19
   510.7889  2.435189E-19
   511.0229  2.425773E-19
   511.2569  2.471592E-19
   511.4909  2.457719E-19
   511.7249  2.300622E-19
   511.9588  2.262475E-19
   512.1928  2.373777E-19
   512.4268  2.460869E-19
   512.6608  2.449178E-19
   512.8947  2.256104E-19
   513.1287  2.054308E-19
   513.3627  1.908686E-19
   513.5967  1.806432E-19
   513.8306  1.728650E-19
   514.0646  1.631057E-19
   514.2985  1.617353E-19
   514.5325  1.626676E-19
   514.7665  1.562399E-19
   515.0004  1.475190E-19
   515.2344  1.411077E-19
   515.4683  1.408750E-19
   515.7023  1.437808E-19
   515.9362  1.408586E-19
   516.1702  1.366274E-19
   516.4042  1.382439E-19
   516.6381  1.346002E-19
   516.8721  1.241688E-19
   517.1060  1.190765E-19
   517.3400  1.224064E-19
   517.5739  1.232803E-19
   517.8079  1.269060E-19
   518.0418  1.427324E-19
   518.2758  1.672366E-19
   518.5098  1.932202E-19
   518.7437  1.974059E-19
   518.9777  1.807557E-19
   519.2117  1.763495E-19
   519.4456  1.811379E-19
   519.6796  1.804991E-19
   519.9136  1.843353E-19
   520.1475  1.884131E-19
   520.3815  1.781749E-19
   520.6155  1.662063E-19
   520.8494  1.630269E-19
   521.0834  1.575729E-19
   521.3174  1.465051E-19
   521.5514  1.417459E-19
   521.7854  1.405827E-19
   522.0194  1.390443E-19
   522.2534  1.374155E-19
   522.4874  1.362494E-19
   522.7214  1.428141E-19
   522.9554  1.508991E-19
   523.1894  1.536661E-19
   523.4234  1.434786E-19
   523.6574  1.337893E-19
   523.8914  1.364495E-19
   524.1254  1.431956E-19
   524.3595  1.518179E-19
   524.5935  1.647257E-19
   524.8275  1.908400E-19
   525.0616  2.185883E-19
   525.2956  2.335700E-19
   525.5297  2.332381E-19
   525.7637  2.196991E-19
   525.9978  2.121531E-19
   526.2319  2.135608E-19
   526.4659  2.163633E-19
   526.7000  2.133828E-19
   526.9341  1.929355E-19
   527.1682  1.685608E-19
   527.4023  1.628788E-19
   527.6364  1.726672E-19
   527.8705  1.810568E-19
   528.1046  1.821629E-19
   528.3387  1.749745E-19
   528.5728  1.639469E-19
   528.8070  1.544145E-19
   529.0411  1.489337E-19
   529.2753  1.478813E-19
   529.5094  1.431647E-19
   529.7436  1.380024E-19
   529.9777  1.424617E-19
   530.2119  1.521785E-19
   530.4461  1.584515E-19
   530.6803  1.520525E-19
   530.9145  1.435013E-19
   531.1487  1.451330E-19
   531.3829  1.479256E-19
   531.6171  1.483976E-19
   531.8514  1.490370E-19
   532.0856  1.494360E-19
   532.3199  1.523990E-19
   532.5541  1.576622E-19
   532.7884  1.565234E-19
   533.0227  1.481747E-19
   533.2570  1.437277E-19
   533.4913  1.354204E-19
   533.7256  1.223452E-19
   533.9599  1.195986E-19
   534.1942  1.211072E-19
   534.4285  1.186611E-19
   534.6629  1.121775E-19
   534.8972  1.032606E-19
   535.1316  9.035571E-20
   535.3660  7.787495E-20
   535.6004  7.474980E-20
   535.8348  7.619540E-20
   536.0692  8.003286E-20
   536.3036  8.598096E-20
   536.5380  8.734548E-20
   536.7725  8.182907E-20
   537.0069  7.705005E-20
   537.2414  7.798929E-20
   537.4758  7.911520E-20
   537.7103  8.048556E-20
   537.9448  9.111935E-20
   538.1793  1.081090E-19
   538.4139  1.236362E-19
   538.6484  1.297931E-19
   538.8829  1.253233E-19
   539.1175  1.256436E-19
   539.3521  1.289222E-19
   539.5866  1.186296E-19
   539.8212  1.038480E-19
   540.0558  9.419199E-20
   540.2905  8.358095E-20
   540.5251  7.332869E-20
   540.7598  7.017437E-20
   540.9944  7.428660E-20
   541.2291  8.302616E-20
   541.4638  9.554542E-20
   541.6985  1.143885E-19
   541.9332  1.284870E-19
   542.1679  1.365486E-19
   542.4027  1.436845E-19
   542.6374  1.429844E-19
   542.8722  1.436151E-19
   543.1070  1.489273E-19
   543.3418  1.483976E-19
   543.5766  1.441722E-19
   543.8114  1.367248E-19
   544.0463  1.278715E-19
   544.2811  1.212204E-19
   544.5160  1.194382E-19
   544.7509  1.256115E-19
   544.9858  1.395880E-19
   545.2207  1.554174E-19
   545.4557  1.541555E-19
   545.6906  1.374190E-19
   545.9256  1.232255E-19
   546.1606  1.179547E-19
   546.3956  1.137164E-19
   546.6306  1.035529E-19
   546.8656  9.940213E-20
   547.1007  1.071756E-19
   547.3358  1.226252E-19
   547.5708  1.335273E-19
   547.8059  1.362558E-19
   548.0411  1.334795E-19
   548.2762  1.275121E-19
   548.5113  1.229910E-19
   548.7465  1.245731E-19
   548.9817  1.295703E-19
   549.2169  1.362336E-19
   549.4521  1.357541E-19
   549.6874  1.242382E-19
   549.9226  1.114687E-19
   550.1579  1.031976E-19
   550.3932  9.890101E-20
   550.6285  9.528815E-20
   550.8638  9.187598E-20
   551.0992  8.582054E-20
   551.3346  8.091025E-20
   551.5699  8.166514E-20
   551.8053  8.476637E-20
   552.0408  8.682219E-20
   552.2762  9.236660E-20
   552.5117  9.887242E-20
   552.7472  1.017584E-19
   552.9827  1.111157E-19
   553.2182  1.207520E-19
   553.4537  1.139416E-19
   553.6893  1.005741E-19
   553.9249  9.639774E-20
   554.1605  9.559559E-20
   554.3961  9.091925E-20
   554.6317  8.381547E-20
   554.8674  7.473405E-20
   555.1031  6.805322E-20
   555.3388  6.526118E-20
   555.5745  6.182975E-20
   555.8102  5.678897E-20
   556.0460  5.386287E-20
   556.2818  5.566714E-20
   556.5176  6.028206E-20
   556.7534  6.133797E-20
   556.9893  6.015313E-20
   557.2251  5.945250E-20
   557.4610  5.919348E-20
   557.6969  5.959484E-20
   557.9329  6.207944E-20
   558.1688  6.622841E-20
   558.4048  6.573371E-20
   558.6408  6.088819E-20
   558.8768  5.655825E-20
   559.1129  5.176546E-20
   559.3489  4.756275E-20
   559.5850  4.799667E-20
   559.8211  4.902575E-20
   560.0573  5.115116E-20
   560.2934  5.443907E-20
   560.5296  5.690390E-20
   560.7658  5.889304E-20
   561.0020  6.097686E-20
   561.2383  6.351980E-20
   561.4746  6.502899E-20
   561.7109  6.693897E-20
   561.9472  6.805147E-20
   562.1835  6.653119E-20
   562.4199  6.692438E-20
   562.6563  7.324410E-20
   562.8927  8.069499E-20
   563.1291  8.517415E-20
   563.3656  9.382796E-20
   563.6021  1.108865E-19
   563.8386  1.211183E-19
   564.0752  1.146189E-19
   564.3117  1.167086E-19
   564.5483  1.288988E-19
   564.7849  1.264982E-19
   565.0215  1.127469E-19
   565.2582  1.023237E-19
   565.4949  9.873708E-20
   565.7316  8.984117E-20
   565.9683  7.331994E-20
   566.2051  5.965376E-20
   566.4419  5.313213E-20
   566.6787  5.297637E-20
   566.9155  5.331158E-20
   567.1524  5.383954E-20
   567.3893  6.130297E-20
   567.6262  7.090710E-20
   567.8632  7.673619E-20
   568.1001  8.274497E-20
   568.3371  8.642725E-20
   568.5742  8.112319E-20
   568.8112  7.254872E-20
   569.0483  6.997369E-20
   569.2854  7.043573E-20
   569.5225  6.863718E-20
   569.7597  6.923980E-20
   569.9968  7.578004E-20
   570.2341  8.333477E-20
   570.4713  8.990417E-20
   570.7086  1.002492E-19
   570.9458  1.039005E-19
   571.1832  1.000450E-19
   571.4205  9.715438E-20
   571.6579  9.693794E-20
   571.8953  9.863090E-20
   572.1327  1.000596E-19
   572.3702  9.520532E-20
   572.6077  8.338202E-20
   572.8452  7.331702E-20
   573.0827  7.054073E-20
   573.3203  6.953791E-20
   573.5579  6.437094E-20
   573.7955  5.968643E-20
   574.0332  5.493909E-20
   574.2709  5.000162E-20
   574.5086  4.684018E-20
   574.7463  4.467131E-20
   574.9841  4.460270E-20
   575.2219  4.402376E-20
   575.4597  4.157206E-20
   575.6976  3.781401E-20
   575.9355  3.316939E-20
   576.1734  2.963384E-20
   576.4113  2.770409E-20
   576.6493  2.682302E-20
   576.8873  2.695136E-20
   577.1253  2.840239E-20
   577.3634  2.947563E-20
   577.6015  3.059239E-20
   577.8396  3.412485E-20
   578.0778  3.693048E-20
   578.3160  3.925582E-20
   578.5542  4.504578E-20
   578.7924  5.288933E-20
   579.0307  5.822991E-20
   579.2690  5.889362E-20
   579.5073  5.663356E-20
   579.7457  5.528054E-20
   579.9841  5.491219E-20
   580.2225  5.351197E-20
   580.4610  5.165141E-20
   580.6995  4.795513E-20
   580.9380  4.198602E-20
   581.1766  3.672828E-20
   581.4151  3.357461E-20
   581.6538  3.320008E-20
   581.8924  3.375785E-20
   582.1311  3.288109E-20
   582.3698  3.068934E-20
   582.6085  2.946950E-20
   582.8473  3.079301E-20
   583.0861  3.346972E-20
   583.3249  3.454476E-20
   583.5638  3.399505E-20
   583.8027  3.492583E-20
   584.0416  3.767073E-20
   584.2806  4.061958E-20
   584.5196  4.498458E-20
   584.7586  5.121160E-20
   584.9977  5.682625E-20
   585.2368  6.013505E-20
   585.4759  6.344863E-20
   585.7151  6.325961E-20
   585.9543  5.776934E-20
   586.1935  5.437058E-20
   586.4327  5.378190E-20
   586.6720  5.330726E-20
   586.9114  5.276787E-20
   587.1507  5.091454E-20
   587.3901  4.742018E-20
   587.6295  4.402580E-20
   587.8690  4.094575E-20
   588.1085  3.829214E-20
   588.3480  3.669404E-20
   588.5875  3.579249E-20
   588.8271  3.601849E-20
   589.0668  3.814875E-20
   589.3064  4.270428E-20
   589.5461  4.765551E-20
   589.7858  5.031396E-20
   590.0256  5.243517E-20
   590.2654  5.684428E-20
   590.5052  6.193185E-20
   590.7451  6.204794E-20
   590.9850  5.830283E-20
   591.2249  5.592849E-20
   591.4648  5.989586E-20
   591.7048  6.768686E-20
   591.9449  7.235212E-20
   592.1849  7.620124E-20
   592.4250  7.739599E-20
   592.6652  7.389690E-20
   592.9053  7.536001E-20
   593.1455  7.669244E-20
   593.3858  6.724407E-20
   593.6260  5.895196E-20
   593.8664  5.347119E-20
   594.1067  4.485087E-20
   594.3471  3.808195E-20
   594.5875  3.625528E-20
   594.8279  3.494216E-20
   595.0684  3.189256E-20
   595.3089  2.841668E-20
   595.5495  2.560405E-20
   595.7901  2.414042E-20
   596.0307  2.447411E-20
   596.2714  2.685358E-20
   596.5120  2.792980E-20
   596.7528  2.687919E-20
   596.9935  2.724240E-20
   597.2343  2.900274E-20
   597.4752  3.004687E-20
   597.7161  3.068433E-20
   597.9570  3.077959E-20
   598.1979  2.979153E-20
   598.4389  3.041189E-20
   598.6799  3.312004E-20
   598.9210  3.594714E-20
   599.0535  3.704914E-20
   599.2775  3.742023E-20
   599.5015  3.784720E-20
   599.7254  4.159925E-20
   599.9492  4.552496E-20
   600.1731  4.552129E-20
   600.3968  4.528659E-20
   600.6205  4.590217E-20
   600.8442  4.491685E-20
   601.0678  4.310692E-20
   601.2913  4.305343E-20
   601.5148  4.427642E-20
   601.7383  4.249298E-20
   601.9617  4.085999E-20
   602.1850  3.825096E-20
   602.4083  3.497582E-20
   602.6316  3.231306E-20
   602.8548  2.909013E-20
   603.0779  2.569272E-20
   603.3010  2.146896E-20
   603.5240  1.773599E-20
   603.7470  1.596708E-20
   603.9700  1.503776E-20
   604.1929  1.385449E-20
   604.4157  1.312545E-20
   604.6385  1.250853E-20
   604.8612  1.237575E-20
   605.0839  1.378087E-20
   605.3066  1.623560E-20
   605.5291  1.799804E-20
   605.7517  1.830817E-20
   605.9742  1.663586E-20
   606.1966  1.425831E-20
   606.4190  1.360808E-20
   606.6413  1.479449E-20
   606.8636  1.633227E-20
   607.0859  1.659876E-20
   607.3080  1.593447E-20
   607.5302  1.630345E-20
   607.7523  1.788446E-20
   607.9743  1.985849E-20
   608.1963  1.967607E-20
   608.4182  1.808228E-20
   608.6401  1.789309E-20
   608.8620  1.762766E-20
   609.0838  1.717496E-20
   609.3055  1.724070E-20
   609.5272  1.698880E-20
   609.7489  1.661608E-20
   609.9705  1.663189E-20
   610.1920  1.700566E-20
   610.4135  1.764102E-20
   610.6350  1.794852E-20
   610.8564  1.921794E-20
   611.0777  2.301823E-20
   611.2990  2.794281E-20
   611.5203  3.384524E-20
   611.7415  3.907147E-20
   611.9627  4.143310E-20
   612.1838  4.569262E-20
   612.4049  5.112981E-20
   612.6259  5.558558E-20
   612.8469  5.848817E-20
   613.0678  4.989789E-20
   613.2887  3.841278E-20
   613.5095  3.306305E-20
   613.7303  3.288272E-20
   613.9510  3.420127E-20
   614.1717  3.370062E-20
   614.3924  3.271798E-20
   614.6129  3.078846E-20
   614.8335  2.777287E-20
   615.0540  2.607063E-20
   615.2745  2.611900E-20
   615.4949  2.731649E-20
   615.7152  3.013601E-20
   615.9355  3.301381E-20
   616.1558  3.446047E-20
   616.3760  3.633013E-20
   616.5962  3.954348E-20
   616.8163  4.319227E-20
   617.0364  4.274313E-20
   617.2565  3.895999E-20
   617.4765  3.599130E-20
   617.6964  3.488890E-20
   617.9163  3.402527E-20
   618.1361  3.097922E-20
   618.3560  2.622435E-20
   618.5757  2.204184E-20
   618.7954  2.008198E-20
   619.0151  1.994127E-20
   619.2347  2.053865E-20
   619.4543  2.159619E-20
   619.6739  2.340554E-20
   619.8933  2.479234E-20
   620.1128  2.605978E-20
   620.3322  2.984747E-20
   620.5515  3.358616E-20
   620.7709  3.422490E-20
   620.9901  3.232974E-20
   621.2093  2.922198E-20
   621.4285  2.567546E-20
   621.6476  2.237938E-20
   621.8667  2.028570E-20
   622.0858  1.881185E-20
   622.3048  1.801642E-20
   622.5237  1.894352E-20
   622.7426  2.037910E-20
   622.9615  2.052611E-20
   623.1803  2.055703E-20
   623.3991  2.170575E-20
   623.6178  2.260608E-20
   623.8365  2.242301E-20
   624.0552  2.138904E-20
   624.2738  2.072469E-20
   624.4923  2.071745E-20
   624.7109  2.040074E-20
   624.9293  1.985622E-20
   625.1478  1.964783E-20
   625.3662  1.970827E-20
   625.5845  1.938648E-20
   625.8028  1.889901E-20
   626.0211  1.821553E-20
   626.2393  1.721690E-20
   626.4574  1.659835E-20
   626.6756  1.670802E-20
   626.8937  1.619372E-20
   627.1117  1.500223E-20
   627.3297  1.405868E-20
   627.5477  1.331720E-20
   627.7656  1.254172E-20
   627.9835  1.169221E-20
   628.2013  1.097792E-20
   628.4191  1.054716E-20
   628.6368  1.071167E-20
   628.8545  1.115422E-20
   629.0722  1.166893E-20
   629.2898  1.170370E-20
   629.5074  1.064925E-20
   629.7249  9.438217E-21
   629.9424  8.548451E-21
   630.1599  7.650343E-21
   630.3773  7.230545E-21
   630.5947  7.892094E-21
   630.8120  8.983242E-21
   631.0293  9.698345E-21
   631.2465  1.050597E-20
   631.4638  1.147589E-20
   631.6809  1.194586E-20
   631.8980  1.223942E-20
   632.1151  1.266767E-20
   632.3322  1.299606E-20
   632.5492  1.248554E-20
   632.7661  1.128396E-20
   632.9831  1.043503E-20
   633.2000  1.053152E-20
   633.4168  1.187405E-20
   633.6336  1.327433E-20
   633.8504  1.354577E-20
   634.0671  1.333756E-20
   634.2838  1.358182E-20
   634.5004  1.377755E-20
   634.7170  1.304162E-20
   634.9336  1.162891E-20
   635.1501  1.100295E-20
   635.3666  1.165855E-20
   635.5830  1.227541E-20
   635.7994  1.232371E-20
   636.0158  1.261610E-20
   636.2321  1.365673E-20
   636.4484  1.409490E-20
   636.6647  1.383168E-20
   636.8809  1.424367E-20
   637.0970  1.434949E-20
   637.3132  1.380327E-20
   637.5293  1.392071E-20
   637.7453  1.482121E-20
   637.9613  1.563624E-20
   638.1773  1.507970E-20
   638.3933  1.323997E-20
   638.6092  1.225009E-20
   638.8250  1.264014E-20
   639.0408  1.317019E-20
   639.2566  1.332351E-20
   639.4724  1.298118E-20
   639.6881  1.347536E-20
   639.9037  1.522981E-20
   640.1194  1.575070E-20
   640.3350  1.454708E-20
   640.5505  1.449463E-20
   640.7661  1.536550E-20
   640.9815  1.532256E-20
   641.1970  1.525594E-20
   641.4124  1.515268E-20
   641.6278  1.523459E-20
   641.8431  1.685258E-20
   642.0584  1.842543E-20
   642.2737  1.912122E-20
   642.4889  2.090448E-20
   642.7041  2.237378E-20
   642.9192  2.170219E-20
   643.1343  2.060854E-20
   643.3494  2.100873E-20
   643.5644  2.139242E-20
   643.7794  1.971819E-20
   643.9944  1.714696E-20
   644.2093  1.506086E-20
   644.4242  1.344841E-20
   644.6391  1.262952E-20
   644.8539  1.331645E-20
   645.0687  1.483509E-20
   645.2834  1.550580E-20
   645.4982  1.572894E-20
   645.7128  1.621595E-20
   645.9275  1.662349E-20
   646.1421  1.844958E-20
   646.3567  2.121175E-20
   646.5712  2.300907E-20
   646.7857  2.486450E-20
   647.0002  2.646220E-20
   647.2146  2.671247E-20
   647.4290  2.579802E-20
   647.6433  2.560212E-20
   647.8577  2.499302E-20
   648.0720  2.225436E-20
   648.2862  1.808310E-20
   648.5004  1.404765E-20
   648.7146  1.155599E-20
   648.9288  1.098697E-20
   649.1429  1.120001E-20
   649.3570  1.116565E-20
   649.5710  1.083605E-20
   649.7850  1.044308E-20
   649.9990  1.059523E-20
   650.2130  1.164426E-20
   650.4269  1.274800E-20
   650.6407  1.266598E-20
   650.8546  1.195525E-20
   651.0684  1.211562E-20
   651.2822  1.230423E-20
   651.4959  1.204375E-20
   651.7096  1.149970E-20
   651.9233  1.057253E-20
   652.1369  1.016079E-20
   652.3506  9.919911E-21
   652.5641  9.961331E-21
   652.7777  9.970082E-21
   652.9912  9.331459E-21
   653.2047  8.643775E-21
   653.4181  8.088517E-21
   653.6315  7.631033E-21
   653.8449  7.329661E-21
   654.0582  7.239471E-21
   654.2716  7.299908E-21
   654.4848  7.502048E-21
   654.6981  8.097093E-21
   654.9113  8.600080E-21
   655.1245  8.551310E-21
   655.3376  8.342694E-21
   655.5508  8.120719E-21
   655.7639  8.666118E-21
   655.9769  9.500988E-21
   656.1899  8.825147E-21
   656.4029  7.475271E-21
   656.6159  6.633401E-21
   656.8288  6.761802E-21
   657.0417  6.962425E-21
   657.2546  6.327886E-21
   657.4674  5.821393E-21
   657.6802  5.961584E-21
   657.8930  6.017997E-21
   658.1058  5.805665E-21
   658.3185  5.694287E-21
   658.5311  5.816452E-21
   658.7438  6.052883E-21
   658.9564  6.242655E-21
   659.1690  6.421110E-21
   659.3816  6.531426E-21
   659.5941  6.516259E-21
   659.8066  6.472564E-21
   660.0191  6.270715E-21
   660.2315  5.789570E-21
   660.4439  4.953789E-21
   660.6563  4.478822E-21
   660.8686  4.315359E-21
   661.0809  4.148158E-21
   661.2932  4.030561E-21
   661.5055  3.644896E-21
   661.7177  3.334172E-21
   661.9299  3.278728E-21
   662.1421  3.141180E-21
   662.3542  2.933877E-21
   662.5663  2.758263E-21
   662.7784  2.673458E-21
   662.9905  2.676147E-21
   663.2025  2.667571E-21
   663.4145  2.568601E-21
   663.6265  2.535699E-21
   663.8384  2.509762E-21
   664.0503  2.617897E-21
   664.2622  2.713145E-21
   664.4740  2.985103E-21
   664.6858  3.560680E-21
   664.8976  4.048733E-21
   665.1094  4.465077E-21
   665.3211  4.602579E-21
   665.5328  4.624707E-21
   665.7445  4.835282E-21
   665.9562  5.480193E-21
   666.1678  6.377473E-21
   666.3794  6.753635E-21
   666.5910  7.179499E-21
   666.8025  7.822147E-21
   667.0140  7.843907E-21
   667.2255  7.546735E-21
   667.4370  7.527425E-21
   667.6484  8.219252E-21
   667.8598  9.280297E-21
   668.0712  1.017199E-20
   668.2825  1.037360E-20
   668.4939  9.389038E-21
   668.7052  8.561460E-21
   668.9164  9.077632E-21
   669.1277  1.001319E-20
   669.3389  9.898326E-21
   669.5501  9.520882E-21
   669.7612  1.067235E-20
   669.9724  1.160196E-20
   670.1835  1.142706E-20
   670.3946  1.082992E-20
   670.6056  9.423166E-21
   670.8167  7.911520E-21
   671.0277  7.344303E-21
   671.2386  8.004511E-21
   671.4496  8.451144E-21
   671.6605  8.246554E-21
   671.8714  8.368188E-21
   672.0823  8.737465E-21
   672.2932  8.860966E-21
   672.5040  9.537683E-21
   672.7148  1.001774E-20
   672.9256  9.637965E-21
   673.1363  1.009166E-20
   673.3470  1.160418E-20
   673.5577  1.357640E-20
   673.7684  1.330315E-20
   673.9791  1.129458E-20
   674.1897  1.073810E-20
   674.4003  1.063945E-20
   674.6109  9.984433E-21
   674.8214  9.363020E-21
   675.0319  8.967607E-21
   675.2424  9.254687E-21
   675.4529  9.715846E-21
   675.6634  1.008827E-20
   675.8738  1.016277E-20
   676.0842  9.705520E-21
   676.2946  9.229077E-21
   676.5049  9.419841E-21
   676.7153  1.021294E-20
   676.9256  1.033178E-20
   677.1359  9.460094E-21
   677.3461  9.529866E-21
   677.5564  9.737723E-21
   677.7666  8.541392E-21
   677.9768  6.879469E-21
   678.1870  6.132105E-21
   678.3971  5.904822E-21
   678.6072  5.485170E-21
   678.8173  5.435081E-21
   679.0274  5.560338E-21
   679.2375  5.739469E-21
   679.4475  6.048857E-21
   679.6575  6.362072E-21
   679.8675  6.426827E-21
   680.0775  6.139922E-21
   680.2874  5.830721E-21
   680.4973  5.606681E-21
   680.7072  5.374211E-21
   680.9171  5.381031E-21
   681.1270  5.319736E-21
   681.3368  5.000494E-21
   681.5466  4.510522E-21
   681.7564  4.349901E-21
   681.9662  4.268532E-21
   682.1759  3.992087E-21
   682.3857  3.968460E-21
   682.5954  4.003988E-21
   682.8050  4.089873E-21
   683.0147  4.496685E-21
   683.2243  4.932934E-21
   683.4340  5.076952E-21
   683.6436  4.718006E-21
   683.8531  4.207662E-21
   684.0627  3.944361E-21
   684.2722  3.845409E-21
   684.4818  3.774820E-21
   684.6912  4.103547E-21
   684.9007  4.255896E-21
   685.1102  4.147977E-21
   685.3196  4.233500E-21
   685.5290  5.073096E-21
   685.7384  5.806418E-21
   685.9478  5.348572E-21
   686.1571  5.011444E-21
   686.3665  5.096215E-21
   686.5758  5.140948E-21
   686.7851  4.746031E-21
   686.9944  4.096220E-21
   687.2036  3.474054E-21
   687.4128  3.279551E-21
   687.6221  3.293330E-21
   687.8313  2.964720E-21
   688.0404  2.676054E-21
   688.2496  2.459703E-21
   688.4587  2.341510E-21
   688.6679  2.393635E-21
   688.8770  2.392591E-21
   689.0860  2.475057E-21
   689.2951  2.616946E-21
   689.5042  2.526931E-21
   689.7132  2.493754E-21
   689.9222  2.534392E-21
   690.1312  2.495137E-21
   690.3402  2.472718E-21
   690.5491  2.433509E-21
   690.7580  2.374384E-21
   690.9670  2.438888E-21
   691.1759  2.496834E-21
   691.3847  2.448461E-21
   691.5936  2.516203E-21
   691.8025  2.476078E-21
   692.0113  2.421876E-21
   692.2201  2.346872E-21
   692.4289  2.106824E-21
   692.6377  1.973172E-21
   692.8464  2.010538E-21
   693.0552  2.039555E-21
   693.2639  2.009855E-21
   693.4726  1.948735E-21
   693.6813  1.851311E-21
   693.8900  1.751215E-21
   694.0986  1.788703E-21
   694.3073  1.937213E-21
   694.5159  2.038003E-21
   694.7245  2.026855E-21
   694.9331  2.037215E-21
   695.1417  2.122733E-21
   695.3502  2.282531E-21
   695.5588  2.441548E-21
   695.7673  2.523279E-21
   695.9758  2.603038E-21
   696.1843  2.438275E-21
   696.3928  2.385030E-21
   696.6013  2.682214E-21
   696.8097  2.688538E-21
   697.0181  2.410075E-21
   697.2266  2.229327E-21
   697.4350  1.942382E-21
   697.6434  1.638011E-21
   697.8517  1.527624E-21
   698.0601  1.456598E-21
   698.2684  1.514761E-21
   698.4768  1.413971E-21
   698.6851  1.321377E-21
   698.8934  1.315911E-21
   699.1016  1.338663E-21
   699.3099  1.477716E-21
   699.5182  1.636173E-21
   699.7264  1.835122E-21
   699.9346  2.132154E-21
   700.1428  2.229928E-21
   700.3510  2.180463E-21
   700.5592  2.132685E-21
   700.7674  2.185405E-21
   700.9755  2.169986E-21
   701.1837  2.032385E-21
   701.3918  1.872569E-21
   701.5999  1.871729E-21
   701.8080  2.035582E-21
   702.0161  2.224462E-21
   702.2242  2.318105E-21
   702.4323  2.456290E-21
   702.6403  2.561869E-21
   702.8483  2.538523E-21
   703.0564  2.444564E-21
   703.2644  2.505148E-21
   703.4724  2.761326E-21
   703.6803  3.166656E-21
   703.8883  3.604457E-21
   704.0963  4.088239E-21
   704.3042  4.181352E-21
   704.5121  4.144033E-21
   704.7201  4.276857E-21
   704.9280  4.512535E-21
   705.1359  4.882921E-21
   705.3438  5.385231E-21
   705.5516  6.201002E-21
   705.7595  6.382549E-21
   705.9673  5.680356E-21
   706.1752  4.963619E-21
   706.3830  4.547683E-21
   706.5908  4.613902E-21
   706.7986  4.861167E-21
   707.0064  5.260383E-21
   707.2142  6.418893E-21
   707.4220  7.390040E-21
   707.6297  7.051623E-21
   707.8375  7.067724E-21
   708.0452  6.608490E-21
   708.2529  4.733815E-21
   708.4606  3.540688E-21
   708.6683  3.197511E-21
   708.8760  2.933743E-21
   709.0837  2.916113E-21
   709.2914  3.053358E-21
   709.4990  3.304239E-21
   709.7067  3.475869E-21
   709.9143  3.471610E-21
   710.1220  3.554041E-21
   710.3296  3.788034E-21
   710.5372  4.348116E-21
   710.7448  5.003061E-21
   710.9524  5.730497E-21
   711.1600  5.214191E-21
   711.3675  4.109532E-21
   711.5751  3.848699E-21
   711.7827  3.965380E-21
   711.9902  4.436317E-21
   712.1977  4.573900E-21
   712.4053  4.613547E-21
   712.6128  4.429118E-21
   712.8203  3.990734E-21
   713.0278  3.840497E-21
   713.2353  3.726307E-21
   713.4428  3.992145E-21
   713.6502  4.530474E-21
   713.8577  4.466040E-21
   714.0652  3.929613E-21
   714.2726  3.345222E-21
   714.4800  3.172635E-21
   714.6875  3.431946E-21
   714.8949  3.478605E-21
   715.1023  3.160985E-21
   715.3097  2.586698E-21
   715.5171  2.160226E-21
   715.7245  1.958681E-21
   715.9319  1.762789E-21
   716.1393  1.727822E-21
   716.3467  1.897520E-21
   716.5540  1.877452E-21
   716.7614  1.742003E-21
   716.9687  1.644515E-21
   717.1761  1.544233E-21
   717.3834  1.469596E-21
   717.5907  1.431618E-21
   717.7980  1.404106E-21
   718.0054  1.385537E-21
   718.2127  1.395851E-21
   718.4200  1.349408E-21
   718.6273  1.271125E-21
   718.8346  1.256972E-21
   719.0418  1.323734E-21
   719.2491  1.145746E-21
   719.4564  1.033166E-21
   719.6636  1.028761E-21
   719.8709  1.031107E-21
   720.0782  1.084375E-21
   720.2854  1.211807E-21
   720.4926  1.328973E-21
   720.6999  1.401615E-21
   720.9071  1.506331E-21
   721.1143  1.468651E-21
   721.3216  1.422056E-21
   721.5288  1.481170E-21
   721.7360  1.573028E-21
   721.9432  1.767497E-21
   722.1504  1.866099E-21
   722.3576  1.823099E-21
   722.5648  1.690643E-21
   722.7719  1.677120E-21
   722.9791  1.656720E-21
   723.1863  1.820357E-21
   723.3935  2.008630E-21
   723.6006  2.048988E-21
   723.8078  1.812154E-21
   724.0150  1.587525E-21
   724.2221  1.620387E-21
   724.4293  1.586464E-21
   724.6364  1.477314E-21
   724.8436  1.344257E-21
   725.0507  1.217023E-21
   725.2578  1.063886E-21
   725.4650  9.632131E-22
   725.6721  9.113568E-22
   725.8792  8.456336E-22
   726.0863  8.004627E-22
   726.2935  7.332169E-22
   726.5006  7.267473E-22
   726.7077  7.854116E-22
   726.9148  7.540668E-22
   727.1219  7.022454E-22
   727.3290  7.114745E-22
   727.5361  7.192042E-22
   727.7432  7.009737E-22
   727.9503  7.057340E-22
   728.1574  7.244488E-22
   728.3645  7.664635E-22
   728.5716  7.285791E-22
   728.7787  6.579205E-22
   728.9858  6.197327E-22
   729.1928  6.054691E-22
   729.3999  5.945950E-22
   729.6070  6.010588E-22
   729.8141  5.979435E-22
   730.0212  6.171016E-22
   730.2282  6.275266E-22
   730.4353  6.210161E-22
   730.6424  6.031064E-22
   730.8495  6.121079E-22
   731.0565  6.023305E-22
   731.2636  6.358280E-22
   731.4707  6.259398E-22
   731.6777  6.433011E-22
   731.8848  6.784203E-22
   732.0919  7.390915E-22
   732.2989  7.343078E-22
   732.5060  7.179558E-22
   732.7131  6.405475E-22
   732.9201  5.887554E-22
   733.1272  5.973252E-22
   733.3343  6.558728E-22
   733.5413  7.528534E-22
   733.7484  8.595180E-22
   733.9555  9.124127E-22
   734.1625  9.570060E-22
   734.3696  1.075746E-21
   734.5767  1.243374E-21
   734.7837  1.307831E-21
   734.9908  1.384650E-21
   735.1979  1.462012E-21
   735.4049  1.358964E-21
   735.6120  1.238870E-21
   735.8191  1.241635E-21
   736.0262  1.256424E-21
   736.2332  1.167873E-21
   736.4403  1.066395E-21
   736.6474  1.006301E-21
   736.8545  1.070426E-21
   737.0615  1.167337E-21
   737.2686  1.205898E-21
   737.4757  1.165301E-21
   737.6828  1.091894E-21
   737.8899  9.725880E-22
   738.0970  9.344177E-22
   738.3040  1.013739E-21
   738.5111  1.124925E-21
   738.7182  1.287267E-21
   738.9253  1.437714E-21
   739.1324  1.485849E-21
   739.3395  1.394375E-21
   739.5466  1.177505E-21
   739.7537  1.062871E-21
   739.9609  1.068658E-21
   740.1680  1.178473E-21
   740.3751  1.332531E-21
   740.5822  1.279193E-21
   740.7893  1.218365E-21
   740.9964  1.173730E-21
   741.2036  1.077088E-21
   741.4107  9.638315E-22
   741.6178  9.055930E-22
   741.8250  8.494955E-22
   742.0321  8.414566E-22
   742.2393  8.846265E-22
   742.4464  9.490371E-22
   742.6536  1.062982E-21
   742.8607  1.182919E-21
   743.0679  1.323623E-21
   743.2751  1.370334E-21
   743.4822  1.420557E-21
   743.6894  1.545703E-21
   743.8966  1.693472E-21
   744.1038  1.850056E-21
   744.3110  2.012369E-21
   744.5182  2.126005E-21
   744.7254  2.405542E-21
   744.9326  2.782432E-21
   745.1398  2.977438E-21
   745.3470  3.135754E-21
   745.5542  3.253579E-21
   745.7614  3.203549E-21
   745.9687  3.451414E-21
   746.1759  3.788238E-21
   746.3831  3.793301E-21
   746.5904  3.811725E-21
   746.7976  3.311660E-21
   747.0049  2.365744E-21
   747.2122  1.687219E-21
   747.4194  1.336329E-21
   747.6267  1.240860E-21
   747.8340  1.157460E-21
   748.0413  1.057778E-21
   748.2486  9.891734E-22
   748.4559  9.490954E-22
   748.6632  8.976708E-22
   748.8705  8.413808E-22
   749.0778  8.848248E-22
   749.2852  9.715263E-22
   749.4925  1.038300E-21
   749.6998  1.050463E-21
   749.9072  1.042698E-21
   750.1145  1.074976E-21
   750.3219  1.027297E-21
   750.5293  1.026072E-21
   750.7367  1.064686E-21
   750.9441  1.130899E-21
   751.1514  1.171356E-21
   751.3589  1.182014E-21
   751.5663  1.159875E-21
   751.7737  1.177826E-21
   751.9811  1.254691E-21
   752.1885  1.274392E-21
   752.3960  1.251442E-21
   752.6034  1.243415E-21
   752.8109  1.221655E-21
   753.0184  1.233357E-21
   753.2259  1.144270E-21
   753.4333  1.084625E-21
   753.6408  1.149917E-21
   753.8483  1.230685E-21
   754.0559  1.341370E-21
   754.2634  1.381943E-21
   754.4709  1.327258E-21
   754.6785  1.286217E-21
   754.8860  1.189522E-21
   755.0936  1.160785E-21
   755.3011  1.285185E-21
   755.5087  1.299681E-21
   755.7163  1.362424E-21
   755.9239  1.459398E-21
   756.1315  1.268512E-21
   756.3391  1.077077E-21
   756.5468  1.082951E-21
   756.7544  1.044804E-21
   756.9620  9.931287E-22
   757.1697  9.397322E-22
   757.3774  9.712287E-22
   757.5851  1.014795E-21
   757.7928  9.221784E-22
   758.0005  7.499657E-22
   758.2082  6.606740E-22
   758.4159  6.221945E-22
   758.6236  5.909839E-22
   758.8314  5.670806E-22
   759.0391  5.346046E-22
   759.2469  5.202308E-22
   759.4547  4.900743E-22
   759.6625  4.722690E-22
   759.8703  3.906792E-22
   760.0781  4.272044E-22
   760.2859  4.106866E-22
   760.4938  3.714960E-22
   760.7016  3.713659E-22
   760.9095  3.555202E-22
   761.1174  3.454762E-22
   761.3252  3.103371E-22
   761.5331  3.254664E-22
   761.7411  3.311001E-22
   761.9490  2.791282E-22
   762.1569  3.036505E-22
   762.3649  3.318246E-22
   762.5728  3.816077E-22
   762.7808  3.676626E-22
   762.9888  4.264419E-22
   763.1968  4.359188E-22
   763.4048  4.265726E-22
   763.6128  4.636637E-22
   763.8209  4.314887E-22
   764.0289  4.704168E-22
   764.2370  4.812770E-22
   764.4451  5.244323E-22
   764.6532  5.736208E-22
   764.8613  5.963859E-22
   765.0694  6.139106E-22
   765.2776  5.986844E-22
   765.4857  5.881020E-22
   765.6939  5.553915E-22
   765.9021  5.929265E-22
   766.1103  6.144123E-22
   766.3185  5.493809E-22
   766.5267  5.225252E-22
   766.7349  5.558121E-22
   766.9432  6.223228E-22
   767.1515  5.790001E-22
   767.3597  5.219010E-22
   767.5680  5.132553E-22
   767.7764  4.841682E-22
   767.9847  4.578322E-22
   768.1930  4.362251E-22
   768.4014  4.245786E-22
   768.6098  4.347334E-22
   768.8182  4.041773E-22
   769.0266  4.283495E-22
   769.2350  3.926335E-22
   769.4434  3.495744E-22
   769.6519  2.748911E-22
   769.8604  2.359572E-22
   770.0688  2.495364E-22
   770.2773  2.906108E-22
   770.4859  2.855226E-22
   770.6944  2.621152E-22
   770.9030  2.483889E-22
   771.1115  1.926934E-22
   771.3201  2.051555E-22
   771.5287  1.988165E-22
   771.7373  1.993468E-22
   771.9460  2.554373E-22
   772.1546  2.688374E-22
   772.3633  2.362022E-22
   772.5720  2.280828E-22
   772.7807  2.075537E-22
   772.9894  2.316869E-22
   773.1982  2.581762E-22
   773.4069  2.445754E-22
   773.6157  2.585554E-22
   773.8245  2.496403E-22
   774.0333  2.569138E-22
   774.2421  2.568228E-22
   774.4510  2.391459E-22
   774.6598  2.671696E-22
   774.8687  2.871566E-22
   775.0776  3.066379E-22
   775.2866  2.833034E-22
   775.4955  2.641115E-22
   775.7045  2.657782E-22
   775.9134  3.129600E-22
   776.1224  3.304362E-22
   776.3315  3.367291E-22
   776.5405  3.618300E-22
   776.7495  3.474247E-22
   776.9586  3.518770E-22
   777.1677  3.971441E-22
   777.3768  4.293115E-22
   777.5860  4.502787E-22
   777.7951  4.861995E-22
   778.0043  4.970556E-22
   778.2135  4.319805E-22
   778.4227  4.411243E-22
   778.6319  4.463881E-22
   778.7547  4.834512E-22
   779.0551  4.787498E-22
   779.3554  4.864731E-22
   779.6555  4.655293E-22
   779.9557  4.460498E-22
   780.2557  5.009093E-22
   780.5556  4.777084E-22
   780.8555  4.506322E-22
   781.1553  4.162013E-22
   781.4550  4.586139E-22
   781.7547  4.296061E-22
   782.0543  4.546143E-22
   782.3538  4.866790E-22
   782.6532  4.752063E-22
   782.9525  5.279529E-22
   783.2518  5.214413E-22
   783.5510  5.128400E-22
   783.8501  5.215790E-22
   784.1491  5.050875E-22
   784.4481  4.775428E-22
   784.7470  4.930577E-22
   785.0458  6.120729E-22
   785.3445  7.277215E-22
   785.6432  6.864943E-22
   785.9417  5.716140E-22
   786.2402  5.299504E-22
   786.5387  6.183267E-22
   786.8370  5.833545E-22
   787.1353  5.052397E-22
   787.4335  4.948265E-22
   787.7317  5.556382E-22
   788.0297  5.829852E-22
   788.3277  6.467663E-22
   788.6256  7.380706E-22
   788.9235  8.364396E-22
   789.2212  9.024428E-22
   789.5189  9.649224E-22
   789.8165  9.802419E-22
   790.1141  1.071319E-21
   790.4116  1.288860E-21
   790.7089  1.313187E-21
   791.0063  1.111350E-21
   791.3035  9.965181E-22
   791.6007  9.453268E-22
   791.8978  8.180865E-22
   792.1948  7.300842E-22
   792.4918  6.938798E-22
   792.7887  7.071808E-22
   793.0855  6.784087E-22
   793.3822  5.488232E-22
   793.6789  4.326974E-22
   793.9755  4.564625E-22
   794.2720  4.629455E-22
   794.5685  4.355968E-22
   794.8649  3.324453E-22
   795.1612  2.817528E-22
   795.4574  2.863522E-22
   795.7536  2.770660E-22
   796.0497  2.402193E-22
   796.3457  2.063286E-22
   796.6417  1.872137E-22
   796.9376  2.198764E-22
   797.2334  2.359653E-22
   797.5292  2.680371E-22
   797.8248  2.870225E-22
   798.1204  2.905921E-22
   798.4160  2.798901E-22
   798.7114  2.836243E-22
   799.0068  2.736748E-22
   799.3022  2.448613E-22
   799.5974  2.730856E-22
   799.8926  2.738259E-22
   800.1877  2.751519E-22
   800.4828  2.883292E-22
   800.7778  3.218652E-22
   801.0727  3.607566E-22
   801.3675  3.585392E-22
   801.6623  3.555885E-22
   801.9570  4.006742E-22
   802.2516  4.220870E-22
   802.5462  4.013281E-22
   802.8407  3.971611E-22
   803.1351  3.749204E-22
   803.4295  4.009192E-22
   803.7238  3.810709E-22
   804.0180  3.798319E-22
   804.3122  3.468122E-22
   804.6063  2.860307E-22
   804.9003  2.403261E-22
   805.1943  1.741525E-22
   805.4882  1.660430E-22
   805.7820  1.866146E-22
   806.0758  1.489145E-22
   806.3694  1.776989E-22
   806.6631  1.978504E-22
   806.9566  1.797302E-22
   807.2501  1.540015E-22
   807.5436  1.290254E-22
   807.8369  1.487978E-22
   808.1302  1.917891E-22
   808.4234  1.699989E-22
   808.7166  1.660815E-22
   809.0097  1.632154E-22
   809.3027  1.486403E-22
   809.5957  1.681058E-22
   809.8886  1.726888E-22
   810.1814  1.573390E-22
   810.4742  1.812312E-22
   810.7669  1.803987E-22
   811.0596  1.589392E-22
   811.3521  1.683007E-22
   811.6447  1.675370E-22
   811.9371  1.742213E-22
   812.2295  1.932703E-22
   812.5218  2.249273E-22
   812.8141  1.876198E-22
   813.1063  1.597303E-22
   813.3984  1.865586E-22
   813.6905  1.677103E-22
   813.9825  1.826570E-22
   814.2744  1.950986E-22
   814.5663  2.124028E-22
   814.8581  2.182033E-22
   815.1498  1.904789E-22
   815.4415  1.927756E-22
   815.7332  2.045651E-22
   816.0247  1.477710E-22
   816.3162  1.524678E-22
   816.6077  1.277000E-22
   816.8990  1.217606E-22
   817.1904  1.319376E-22
   817.4816  1.103229E-22
   817.7728  1.068454E-22
   818.0639  1.278674E-22
   818.3550  1.344881E-22
   818.6460  1.195175E-22
   818.9369  1.131021E-22
   819.2278  1.146837E-22
   819.5186  1.330752E-22
   819.8094  9.643566E-23
   820.1001  1.133244E-22
   820.3907  1.663965E-22
   820.6813  1.496589E-22
   820.9718  1.500935E-22
   821.2623  1.522205E-22
   821.5527  1.137007E-22
   821.8430  1.144532E-22
   822.1333  1.384160E-22
   822.4235  9.234502E-23
   822.7137  1.325268E-22
   823.0038  1.398657E-22
   823.2938  1.573851E-22
   823.5838  1.250071E-22
   823.8737  1.245124E-22
   824.1636  1.382970E-22
   824.4534  1.497009E-22
   824.7431  1.444353E-22
   825.0328  1.623000E-22
   825.3225  1.874272E-22
   825.6120  1.734035E-22
   825.9015  1.380211E-22
   826.1910  1.636261E-22
   826.4804  1.640613E-22
   826.7697  2.101183E-22
   827.0590  1.638746E-22
   827.3482  1.324860E-22
   827.6374  1.327135E-22
   827.9265  1.698419E-22
   828.2155  1.775472E-22
   828.5045  1.609040E-22
   828.7935  1.622335E-22
   829.0823  1.571372E-22
   829.3712  1.575566E-22
   829.6599  1.641511E-22
   829.9486  1.598230E-22
   830.2373  1.307592E-22
   830.5259  1.316582E-22
   830.8144  1.648226E-22
   831.1029  1.553666E-22
   831.3913  1.581406E-22
   831.6797  1.464631E-22
   831.9680  1.499995E-22
   832.2563  1.820374E-22
   832.5445  1.726474E-22
   832.8326  1.547027E-22
   833.1207  1.782245E-22
   833.4088  1.996350E-22
   833.6968  2.160681E-22
   833.9847  2.371123E-22
   834.2726  2.964767E-22
   834.5604  3.247471E-22
   834.8481  3.480997E-22
   835.1359  3.241235E-22
   835.4235  3.466126E-22
   835.7111  3.773449E-22
   835.9987  4.507839E-22
   836.2862  4.845345E-22
   836.5736  3.392125E-22
   836.8610  1.783505E-22
   837.1483  1.003017E-22
   837.4356  8.827013E-23
   837.7228  1.349858E-22
   838.0100  1.479746E-22
   838.2972  1.157501E-22
   838.5842  1.489903E-22
   838.8712  1.357494E-22
   839.1582  1.359693E-22
   839.4451  1.425603E-22
   839.7320  1.458547E-22
   840.0188  2.038534E-22
   840.3055  2.061974E-22
   840.5923  1.928906E-22
   840.8789  1.654876E-22
   841.1655  1.933281E-22
   841.4521  1.967198E-22
   841.7386  1.779433E-22
   842.0250  1.693846E-22
   842.3114  2.065947E-22
   842.5978  2.006279E-22
   842.8840  1.805708E-22
   843.1703  1.878432E-22
   843.4565  2.247038E-22
   843.7426  2.496805E-22
   844.0287  2.320579E-22
   844.3148  2.159036E-22
   844.6008  2.243340E-22
   844.8867  2.308048E-22
   845.1726  2.061991E-22
   845.4584  2.063572E-22
   845.7442  1.671222E-22
   846.0300  1.794519E-22
   846.3157  1.448547E-22
   846.6013  1.034467E-22
   846.8869  8.623065E-23
   847.1725  6.903037E-23
   847.4580  6.671437E-23
   847.7434  8.192941E-23
   848.0288  7.587805E-23
   848.3142  5.789453E-23
   848.5995  7.467571E-23
   848.8847  1.020495E-22
   849.1700  3.518134E-23
   849.4551  7.541718E-23
   849.7402  8.817971E-23
   850.0253  7.925755E-23
   850.3103  3.814431E-23
   850.5953  7.449369E-23
   850.8802  8.689103E-23
   851.1651  7.543410E-23
   851.4499  9.854398E-23
   851.7347  6.361897E-23
   852.0194  5.978152E-23
   852.3041  4.369952E-23
   852.5888  4.493103E-23
   852.8734  3.200929E-23
   853.1579  1.169606E-22
   853.4424  1.257077E-22
   853.7269  1.083692E-22
   854.0113  8.129003E-23
   854.2957  9.000393E-23
   854.5800  1.041561E-22
   854.8643  1.249348E-22
   855.1485  1.190071E-22
   855.4327  1.466090E-22
   855.7168  1.094805E-22
   856.0009  5.264525E-23
   856.2850  1.079387E-22
   856.5690  1.186337E-22
   856.8529  6.465971E-23
   857.1369  3.532649E-23
   857.4207  6.814714E-23
   857.7046  2.925202E-23
   857.9884  2.196331E-23
   858.2721  7.607873E-23
   858.5558  5.615554E-23
   858.8394  4.125126E-23
   859.1231  4.013293E-23
   859.4066  6.866051E-23
   859.6901  6.327011E-23
   859.9736  7.531392E-23
   860.2571  8.564494E-23
   860.5405  7.926222E-23
   860.8238  3.085683E-23
   861.1071  2.764208E-23
   861.3904  5.172911E-23
   861.6736  5.714127E-23
   861.9568  1.270769E-23
   862.2399  5.282633E-23
   862.5230  9.229193E-23
   862.8061  6.010471E-23
   863.0891  7.406433E-23
   863.3721  6.698505E-23
   863.6550  4.606435E-23
   863.9379  6.884778E-23
   864.2207  3.705632E-23
   864.5036  4.789312E-23
   864.7863  7.261872E-23
   865.0690  6.499632E-23
   865.3517  6.528159E-23
   865.6344  4.977620E-23
   865.9170  5.096886E-23
   866.1995  5.086752E-23
   866.4821  3.898204E-23
   866.7646  8.363112E-23
   867.0470  8.118327E-23
   867.3294  5.155964E-23
   867.6118  4.591717E-23
   867.8941  4.708923E-23
   868.1764  2.780052E-23
   868.4586  5.383394E-23
   868.7408  7.126821E-23
   869.0230  3.695901E-23
   869.3051  1.097670E-23
   869.5872  2.861842E-23
   869.8693  3.737029E-23
   870.1513  4.150631E-23
   870.4333  1.371746E-24
   870.7152  2.282315E-23
   870.9971  8.552593E-24
   871.2790  3.126508E-23
   871.5608  6.283375E-23
   871.8426  4.491702E-23
   872.1243  3.095011E-23
   872.4060  1.907152E-23
   872.6877 -1.775279E-24
   872.9693  2.252143E-23
   873.2509  1.985441E-23
   873.5325  3.528886E-23
   873.8140  5.415964E-23
   874.0955  5.832623E-23
   874.3770  3.167239E-23
   874.6584  4.074086E-23
   874.9398  3.071087E-23
   875.2211  4.748155E-23
   875.5024  7.655710E-23
   875.7837  6.034156E-23
   876.0649  5.083836E-24
   876.3461  3.981878E-24
   876.6273 -2.277036E-23
   876.9084 -5.016152E-24
   877.1895  4.350881E-23
   877.4706  5.235292E-23
   877.7516  4.132903E-23
   878.0326  2.240907E-23
   878.3135  6.794938E-24
   878.5945  1.327859E-23
   878.8753  4.944904E-23
   879.1562  5.566136E-23
   879.4370  7.158615E-23
   879.7178  4.886462E-23
   879.9985  3.861866E-23
   880.2793  5.120536E-23
   880.5599  4.351441E-24
   880.8406  3.787485E-23
   881.1212  4.548413E-23
   881.4018  4.273088E-23
   881.6823  6.022897E-23
   881.9628  7.325110E-23
   882.2433  7.669711E-23
   882.5238  7.790995E-23
   882.8042  5.323977E-23
   883.0846  6.630775E-23
   883.3649  7.468679E-23
   883.6452  5.807409E-23
   883.9255  4.345514E-23
   884.2058  6.637951E-23
   884.4860  4.690126E-23
   884.7662  3.619858E-23
   885.0464  3.857350E-23
   885.3265  4.004093E-23
   885.6066  5.283199E-23
   885.8867  1.464410E-23
   886.1667  6.629142E-24
   886.4467  1.379073E-23
   886.7267  4.578946E-23
   887.0066  4.724330E-23
   887.2865  5.953942E-23
   887.5664  8.299116E-24
   887.8463  2.279177E-23
   888.1261  5.231080E-23
   888.4059  8.199067E-23
   888.6856  4.362840E-23
   888.9654  1.478516E-25
   889.2451  2.345851E-24
   889.5247 -5.140977E-24
   889.8044  1.749698E-23
   890.0840  5.825681E-23
   890.0840  1.001538E-22
   890.3636  1.106358E-22
   890.6431  1.044782E-22
   890.9227  9.357566E-23
   891.2022  9.358931E-23
   891.4816  1.068113E-22
   891.7611  1.273695E-22
   892.0405  1.647252E-22
   892.3199  1.580430E-22
   892.5992  1.462091E-22
   892.8786  6.850354E-23
   893.1579  1.344250E-23
   893.4371  1.131630E-23
   893.7164  4.102931E-23
   893.9956  4.495968E-23
   894.2748  1.469096E-23
   894.5540  6.514567E-24
   894.8331  3.413713E-23
   895.1122  2.308893E-23
   895.3913  2.863276E-23
   895.6703  4.438313E-23
   895.9494  2.157215E-23
   896.2284  2.554228E-23
   896.5074  3.465875E-23
   896.7863  2.994699E-23
   897.0652  4.896235E-23
   897.3441  6.515489E-23
   897.6230  4.794868E-23
   897.9019  5.171859E-23
   898.1807  7.757051E-23
   898.4595  7.211963E-23
   898.7383  8.115008E-23
   899.0170  7.862771E-23
   899.2957  4.875062E-23
   899.5744  7.025017E-23
   899.8531  8.297602E-23
   900.1318  7.015389E-23
   900.4104  6.806532E-23
   900.6890  4.742414E-23
   900.9676  8.510222E-23
   901.2461  7.455643E-23
   901.5246  3.675124E-23
   901.8031  3.389020E-23
   902.0816  7.206172E-23
   902.3601  6.105557E-23
   902.6385  5.119221E-23
   902.9169  4.082754E-23
   903.1953  7.440002E-23
   903.4737  5.477620E-23
   903.7520  5.261164E-23
   904.0304  5.483965E-23
   904.3087  5.342538E-23
   904.5869  6.397080E-23
   904.8652  8.782710E-23
   905.1434  5.665968E-23
   905.4216  3.950770E-23
   905.6998  1.278793E-23
   905.9780  2.901909E-23
   906.2561  5.270607E-23
   906.5342  3.001999E-23
   906.8123  1.196216E-23
   907.0904  1.255351E-23
   907.3685  4.296738E-23
   907.6465  4.939984E-23
   907.9245  4.191756E-23
   908.2025  5.773864E-23
   908.4805  3.238921E-23
   908.7585  1.313592E-23
   909.0364  3.811445E-23
   909.3143  3.840218E-23
   909.5922  2.425904E-23
   909.8701  3.159554E-23
   910.1480  4.376084E-23
   910.4258  5.187942E-23
   910.7036  6.569640E-23
   910.9814  5.921341E-23
   911.2592  4.340192E-23
   911.5370  3.382410E-23
   911.8147  2.154872E-23
   912.0924  3.965193E-23
   912.3701  4.061359E-23
   912.6478  4.440563E-23
   912.9255  3.114639E-23
   913.2031  5.100740E-23
   913.4807  4.546689E-23
   913.7584  5.411776E-23
   914.0360  4.296185E-23
   914.3135  2.093108E-23
   914.5911  1.723067E-23
   914.8686 -8.975411E-24
   915.1462  1.970645E-23
   915.4237  3.525552E-23
   915.7012  5.342612E-23
   915.9786  3.393107E-23
   916.2561  6.204711E-23
   916.5335  7.557637E-23
   916.8110  5.530333E-23
   917.0884  2.543664E-23
   917.3658  2.390134E-23
   917.6431  1.719540E-23
   917.9205  6.504091E-24
   918.1978 -1.822652E-23
   918.4752  3.334522E-23
   918.7525  3.910157E-23
   919.0298  2.993430E-23
   919.3070  3.236752E-23
   919.5843  3.296329E-23
   919.8616  4.457900E-23
   920.1388  1.853191E-23
   920.4160 -1.109180E-25
   920.6932 -9.650933E-24
   920.9704  5.443979E-24
   921.2476 -1.518411E-23
   921.5248  2.726726E-24
   921.8019 -9.379883E-25
   922.0790  3.114543E-25
   922.3562  6.459199E-24
   922.6333  1.721075E-23
   922.9104 -8.477576E-25
   923.1874  1.637841E-23
   923.4645  1.371395E-23
   923.7416  3.826311E-23
   924.0186  7.450146E-24
   924.2956 -8.207928E-24
   924.5727 -1.304607E-23
   924.8497  2.560503E-23
   925.1266  3.518278E-23
   925.4036  2.406520E-23
   925.6806  1.548540E-23
   925.9575 -1.799217E-23
   926.2345 -7.967458E-24
   926.5114 -1.036939E-23
   926.7883  1.021583E-23
   927.0652  6.182210E-24
   927.3421 -3.286277E-24
   927.6190  3.138070E-23
   927.8959  1.103326E-23
   928.1728  1.738958E-23
   928.4496  4.787491E-23
   928.7264  4.226763E-23
   929.0033  1.777845E-23
   929.2801 -2.202103E-24
   929.5569  9.433481E-24
   929.8337  3.053922E-23
   930.1105  4.028160E-23
   1613.000  4.028160E-23
   2200.000  4.028160E-23
   2300.000  4.028160E-23
