#******** NO2 Absorption Cross Sections at 293K ******************
#
#Version 1.0
#Date: August 2000
#
#K. Bogumil, J. Orphal, and J. P. Burrows
#University of Bremen - Institute of Environmental Physics
#P. O. Box 33 04 40
#D-28334 Bremen, Germany
#e-mail: Konstanze.Bogumil@iup.physik.uni-bremen.de
#
#1. column title:	wavelength (vacuum)
#1. column unit:		nm
#2. column title:	absorption cross-section 
#2. column unit:		cm2/molec
#
#Wavelength range:	230 - 930 nm
#Spectral Resolution:	0.22 nm below 308 nm, 
#	                0.21 nm between 308 nm and 400 nm, 
#			0.52 nm between 400 nm and 598.7 nm, 
#			0.47 nm between 598.7 nm and 777 nm,
#                       0.62 nm between 777 nm and 930 nm (FWHM)
#Number of data points in file:	3729
#
#Experimental:
#
#Light source:   Xenon lamp
#Cell:	        Multiple reflection quartz cell (White optics)
#	        optical pathlength 985 cm
#Temperature:    293K
#Gas mixture:    NO2, N2
#Condition:      Flow measurement
#Total pressure: 100 mbar
#Spectrometer:   SCIAMACHY PFM Satellite Spectrometer 
#		 (Eight channel grating spectrometer)
#
#Note: Spectral Regions are cut and concatenated at 308 nm, 400 nm, 
#      573 nm, 598.7 nm and 777 nm. The data are scaled to the absorption 
#      cross section measured by Vandaele et al. J. Quant. Spectrosc. Radiat. 
#      Transfer 59 (3--5), 171--184 (1998)
#
   229.9432  2.062602E-19
   230.0757  2.066822E-19
   230.2082  2.119471E-19
   230.3406  2.169919E-19
   230.4729  2.263281E-19
   230.6052  2.341845E-19
   230.7375  2.436387E-19
   230.8697  2.518304E-19
   231.0018  2.590275E-19
   231.1339  2.648163E-19
   231.2660  2.733971E-19
   231.3980  2.773909E-19
   231.5299  2.806514E-19
   231.6618  2.774790E-19
   231.7936  2.768276E-19
   231.9254  2.666308E-19
   232.0571  2.604576E-19
   232.1888  2.537858E-19
   232.3204  2.492361E-19
   232.4520  2.475311E-19
   232.5835  2.476267E-19
   232.7150  2.511874E-19
   232.8464  2.534744E-19
   232.9777  2.529931E-19
   233.1090  2.457812E-19
   233.2403  2.332549E-19
   233.3714  2.169532E-19
   233.5026  1.983493E-19
   233.6336  1.790169E-19
   233.7647  1.628605E-19
   233.8956  1.470922E-19
   234.0265  1.358680E-19
   234.1574  1.275930E-19
   234.2882  1.211085E-19
   234.4189  1.156145E-19
   234.5496  1.112068E-19
   234.6802  1.071495E-19
   234.8108  1.065527E-19
   234.9413  1.098213E-19
   235.0718  1.198680E-19
   235.2022  1.354847E-19
   235.3325  1.554767E-19
   235.4628  1.744362E-19
   235.5930  1.875206E-19
   235.7232  1.890212E-19
   235.8533  1.794569E-19
   235.9833  1.640715E-19
   236.1133  1.489911E-19
   236.2433  1.389680E-19
   236.3731  1.373424E-19
   236.5029  1.428608E-19
   236.6327  1.485750E-19
   236.7624  1.499579E-19
   236.8920  1.489502E-19
   237.0216  1.476440E-19
   237.1511  1.480889E-19
   237.2806  1.540451E-19
   237.4100  1.610500E-19
   237.5393  1.678790E-19
   237.6686  1.718172E-19
   237.7978  1.702837E-19
   237.9270  1.627406E-19
   238.0561  1.505799E-19
   238.1851  1.367127E-19
   238.3141  1.221665E-19
   238.4430  1.077593E-19
   238.5719  9.474721E-20
   238.7006  8.345223E-20
   238.8294  7.582757E-20
   238.9581  7.415325E-20
   239.0867  8.225745E-20
   239.2152  9.843412E-20
   239.3437  1.119121E-19
   239.4721  1.149480E-19
   239.6005  1.078866E-19
   239.7288  9.635846E-20
   239.8570  8.398674E-20
   239.9852  7.279062E-20
   240.1133  6.338945E-20
   240.2414  5.571942E-20
   240.3694  5.006492E-20
   240.4973  4.537909E-20
   240.6252  4.134802E-20
   240.7530  3.757627E-20
   240.8808  3.360960E-20
   241.0084  3.005496E-20
   241.1361  2.707282E-20
   241.2636  2.474013E-20
   241.3911  2.353630E-20
   241.5185  2.319686E-20
   241.6459  2.461084E-20
   241.7732  2.898659E-20
   241.9005  4.008757E-20
   242.0277  6.413864E-20
   242.1548  1.001789E-19
   242.2818  1.317130E-19
   242.4088  1.425767E-19
   242.5358  1.319177E-19
   242.6626  1.122920E-19
   242.7894  9.261953E-20
   242.9162  7.807771E-20
   243.0429  7.000007E-20
   243.1695  6.679713E-20
   243.2960  6.393133E-20
   243.4225  5.816359E-20
   243.5489  5.098932E-20
   243.6753  4.350557E-20
   243.8016  3.716202E-20
   243.9278  3.232654E-20
   244.0540  2.869953E-20
   244.1801  2.583713E-20
   244.3062  2.405671E-20
   244.4322  2.342232E-20
   244.5581  2.502741E-20
   244.6839  3.127587E-20
   244.8097  4.163722E-20
   244.9355  4.762960E-20
   245.0611  4.520720E-20
   245.1867  3.847300E-20
   245.3123  3.140745E-20
   245.4377  2.607003E-20
   245.5632  2.181225E-20
   245.6885  1.928379E-20
   245.8138  1.991044E-20
   245.9390  2.985643E-20
   246.0642  4.062244E-20
   246.1893  3.994740E-20
   246.3143  3.383583E-20
   246.4393  2.779073E-20
   246.5642  2.324880E-20
   246.6890  1.998288E-20
   246.8138  1.780984E-20
   246.9385  1.584340E-20
   247.0632  1.434986E-20
   247.1878  1.347374E-20
   247.3123  1.225438E-20
   247.4367  1.145972E-20
   247.5611  1.102529E-20
   247.6855  1.011874E-20
   247.8098  1.005640E-20
   247.9340  9.820321E-21
   248.0581  9.437796E-21
   248.1822  9.273684E-21
   248.3062  9.230415E-21
   248.4302  9.077073E-21
   248.5541  9.015028E-21
   248.6779  9.144577E-21
   248.8017  9.388478E-21
   248.9254  1.047928E-20
   249.0490  1.743285E-20
   249.1726  3.715132E-20
   249.2961  5.143898E-20
   249.4196  4.925376E-20
   249.5430  4.133068E-20
   249.6663  3.324769E-20
   249.7896  2.749209E-20
   249.9128  2.299280E-20
   250.0359  2.024113E-20
   250.1590  1.770308E-20
   250.2820  1.604576E-20
   250.4050  1.500989E-20
   250.5279  1.360111E-20
   250.6507  1.321667E-20
   250.7735  1.254661E-20
   250.8962  1.175164E-20
   251.0189  1.140682E-20
   251.1414  1.122375E-20
   251.2640  1.069943E-20
   251.3864  1.053930E-20
   251.5088  1.034387E-20
   251.6312  1.014785E-20
   251.7535  1.012206E-20
   251.8757  9.966285E-21
   251.9978  1.027382E-20
   252.1199  1.026301E-20
   252.2420  1.025393E-20
   252.3639  1.039315E-20
   252.4858  1.048079E-20
   252.6077  1.045726E-20
   252.7295  1.055007E-20
   252.8512  1.063281E-20
   252.9729  1.107040E-20
   253.0945  1.115602E-20
   253.2160  1.113883E-20
   253.3375  1.121463E-20
   253.4590  1.122393E-20
   253.5803  1.118498E-20
   253.7016  1.136960E-20
   253.8229  1.154540E-20
   253.9441  1.196161E-20
   254.0652  1.230643E-20
   254.1863  1.261278E-20
   254.3073  1.271625E-20
   254.4282  1.257302E-20
   254.5491  1.251001E-20
   254.6699  1.244638E-20
   254.7907  1.229902E-20
   254.9114  1.229968E-20
   255.0321  1.236774E-20
   255.1527  1.253241E-20
   255.2732  1.260862E-20
   255.3937  1.280261E-20
   255.5141  1.288774E-20
   255.6345  1.319952E-20
   255.7548  1.341376E-20
   255.8750  1.358698E-20
   255.9952  1.350989E-20
   256.1153  1.335039E-20
   256.2354  1.320855E-20
   256.3554  1.321412E-20
   256.4754  1.312124E-20
   256.5953  1.311353E-20
   256.7151  1.308078E-20
   256.8349  1.327193E-20
   256.9546  1.312718E-20
   257.0743  1.331066E-20
   257.1939  1.374254E-20
   257.3135  1.398511E-20
   257.4330  1.414196E-20
   257.5524  1.438958E-20
   257.6718  1.465425E-20
   257.7911  1.500491E-20
   257.9104  1.521177E-20
   258.0296  1.534542E-20
   258.1488  1.541602E-20
   258.2679  1.531638E-20
   258.3869  1.515814E-20
   258.5059  1.510874E-20
   258.6249  1.524095E-20
   258.7438  1.540761E-20
   258.8626  1.579891E-20
   258.9814  1.640911E-20
   259.1001  1.690797E-20
   259.2188  1.714937E-20
   259.3374  1.732617E-20
   259.4559  1.744299E-20
   259.5745  1.740149E-20
   259.6929  1.729787E-20
   259.8113  1.719215E-20
   259.9296  1.704508E-20
   260.0479  1.706688E-20
   260.1662  1.710101E-20
   260.2844  1.672981E-20
   260.4025  1.660668E-20
   260.5206  1.655507E-20
   260.6386  1.678027E-20
   260.7566  1.686706E-20
   260.8745  1.719525E-20
   260.9924  1.752329E-20
   261.1102  1.763849E-20
   261.2279  1.792028E-20
   261.3457  1.827676E-20
   261.4633  1.850188E-20
   261.5809  1.875652E-20
   261.6985  1.852417E-20
   261.8160  1.866965E-20
   261.9334  1.847344E-20
   262.0509  1.823781E-20
   262.1682  1.831759E-20
   262.2855  1.834722E-20
   262.4028  1.878481E-20
   262.5200  1.922783E-20
   262.6371  1.978222E-20
   262.7542  2.008569E-20
   262.8713  2.071842E-20
   262.9883  2.128564E-20
   263.1052  2.164751E-20
   263.2221  2.180118E-20
   263.3390  2.188484E-20
   263.4558  2.179624E-20
   263.5726  2.174025E-20
   263.6893  2.176433E-20
   263.8059  2.198938E-20
   263.9226  2.203726E-20
   264.0391  2.228349E-20
   264.1556  2.209529E-20
   264.2721  2.208024E-20
   264.3885  2.214597E-20
   264.5049  2.240245E-20
   264.6212  2.231407E-20
   264.7375  2.288413E-20
   264.8538  2.317550E-20
   264.9699  2.354143E-20
   265.0861  2.384070E-20
   265.2022  2.405003E-20
   265.3182  2.428910E-20
   265.4342  2.437571E-20
   265.5502  2.461475E-20
   265.6661  2.435196E-20
   265.7820  2.416402E-20
   265.8978  2.410994E-20
   266.0136  2.397534E-20
   266.1293  2.387386E-20
   266.2450  2.368843E-20
   266.3606  2.352959E-20
   266.4762  2.358979E-20
   266.5918  2.376799E-20
   266.7073  2.397622E-20
   266.8228  2.436760E-20
   266.9382  2.483120E-20
   267.0536  2.553052E-20
   267.1689  2.593178E-20
   267.2842  2.636377E-20
   267.3994  2.648911E-20
   267.5146  2.659480E-20
   267.6298  2.658192E-20
   267.7449  2.647923E-20
   267.8600  2.631301E-20
   267.9750  2.639262E-20
   268.0900  2.660893E-20
   268.2050  2.694468E-20
   268.3199  2.763469E-20
   268.4348  2.853608E-20
   268.5496  2.912385E-20
   268.6644  2.990542E-20
   268.7792  3.057216E-20
   268.8939  3.117819E-20
   269.0085  3.164969E-20
   269.1232  3.190296E-20
   269.2378  3.208098E-20
   269.3523  3.214343E-20
   269.4668  3.192417E-20
   269.5813  3.170144E-20
   269.6957  3.141272E-20
   269.8101  3.146145E-20
   269.9245  3.142183E-20
   270.0388  3.137399E-20
   270.1531  3.145558E-20
   270.2673  3.146329E-20
   270.3815  3.154600E-20
   270.4957  3.154773E-20
   270.6098  3.169034E-20
   270.7239  3.149723E-20
   270.8379  3.150479E-20
   270.9519  3.166558E-20
   271.0659  3.167031E-20
   271.1799  3.170373E-20
   271.2938  3.162630E-20
   271.4076  3.153877E-20
   271.5215  3.145071E-20
   271.6353  3.134197E-20
   271.7490  3.147971E-20
   271.8628  3.153224E-20
   271.9764  3.195751E-20
   272.0901  3.225051E-20
   272.2037  3.292135E-20
   272.3173  3.349052E-20
   272.4309  3.409404E-20
   272.5444  3.469018E-20
   272.6579  3.520347E-20
   272.7713  3.572661E-20
   272.8847  3.673482E-20
   272.9981  3.771017E-20
   273.1115  3.852649E-20
   273.2248  3.920706E-20
   273.3381  3.957151E-20
   273.4513  3.990608E-20
   273.5645  3.962721E-20
   273.6777  3.965783E-20
   273.7909  3.958664E-20
   273.9040  3.964455E-20
   274.0171  3.988395E-20
   274.1301  4.055383E-20
   274.2431  4.102599E-20
   274.3561  4.157303E-20
   274.4691  4.197179E-20
   274.5820  4.208282E-20
   274.6949  4.229271E-20
   274.8078  4.213741E-20
   274.9207  4.218463E-20
   275.0335  4.219016E-20
   275.1462  4.216914E-20
   275.2590  4.215143E-20
   275.3717  4.205442E-20
   275.4844  4.179620E-20
   275.5971  4.159775E-20
   275.7097  4.133658E-20
   275.8223  4.119088E-20
   275.9349  4.117981E-20
   276.0474  4.129343E-20
   276.1600  4.150000E-20
   276.2725  4.160291E-20
   276.3849  4.203413E-20
   276.4974  4.267155E-20
   276.6098  4.311161E-20
   276.7222  4.367194E-20
   276.8345  4.408655E-20
   276.9468  4.451076E-20
   277.0591  4.500800E-20
   277.1714  4.507440E-20
   277.2837  4.522269E-20
   277.3959  4.539016E-20
   277.5081  4.547758E-20
   277.6203  4.560853E-20
   277.7324  4.571846E-20
   277.8445  4.593942E-20
   277.9566  4.632194E-20
   278.0687  4.693354E-20
   278.1807  4.762296E-20
   278.2928  4.815119E-20
   278.4048  4.856102E-20
   278.5167  4.891255E-20
   278.6287  4.922315E-20
   278.7406  4.942898E-20
   278.8525  5.000406E-20
   278.9644  5.067467E-20
   279.0762  5.165957E-20
   279.1881  5.275181E-20
   279.2999  5.405431E-20
   279.4117  5.510524E-20
   279.5234  5.611780E-20
   279.6352  5.652763E-20
   279.7469  5.631626E-20
   279.8586  5.624654E-20
   279.9703  5.607501E-20
   280.0819  5.564638E-20
   280.1935  5.499753E-20
   280.3052  5.462423E-20
   280.4167  5.428634E-20
   280.5283  5.429519E-20
   280.6399  5.493224E-20
   280.7514  5.568585E-20
   280.8629  5.614031E-20
   280.9744  5.662907E-20
   281.0858  5.692306E-20
   281.1973  5.732108E-20
   281.3087  5.771319E-20
   281.4201  5.821597E-20
   281.5315  5.871764E-20
   281.6429  5.916287E-20
   281.7542  5.907545E-20
   281.8656  5.842291E-20
   281.9769  5.743543E-20
   282.0882  5.646529E-20
   282.1994  5.567442E-20
   282.3107  5.507462E-20
   282.4219  5.471276E-20
   282.5331  5.462386E-20
   282.6443  5.453975E-20
   282.7555  5.487285E-20
   282.8667  5.534907E-20
   282.9778  5.601858E-20
   283.0890  5.704626E-20
   283.2001  5.835762E-20
   283.3112  5.958302E-20
   283.4223  6.048824E-20
   283.5333  6.147794E-20
   283.6444  6.215925E-20
   283.7554  6.316776E-20
   283.8664  6.443890E-20
   283.9774  6.587162E-20
   284.0884  6.702730E-20
   284.1994  6.745372E-20
   284.3104  6.774883E-20
   284.4213  6.800999E-20
   284.5322  6.828148E-20
   284.6431  6.856810E-20
   284.7540  6.907088E-20
   284.8649  6.990122E-20
   284.9758  7.053015E-20
   285.0866  7.128376E-20
   285.1975  7.163530E-20
   285.3083  7.225206E-20
   285.4191  7.278877E-20
   285.5299  7.343504E-20
   285.6407  7.402783E-20
   285.7515  7.469623E-20
   285.8622  7.552509E-20
   285.9730  7.613448E-20
   286.0837  7.645208E-20
   286.1944  7.669738E-20
   286.3051  7.680915E-20
   286.4158  7.692830E-20
   286.5265  7.688293E-20
   286.6372  7.653545E-20
   286.7478  7.613485E-20
   286.8585  7.569847E-20
   286.9691  7.511269E-20
   287.0797  7.480284E-20
   287.1903  7.455643E-20
   287.3009  7.455938E-20
   287.4115  7.455495E-20
   287.5221  7.501014E-20
   287.6327  7.574826E-20
   287.7432  7.639490E-20
   287.8538  7.659963E-20
   287.9643  7.650188E-20
   288.0748  7.628461E-20
   288.1853  7.637830E-20
   288.2958  7.669296E-20
   288.4063  7.736984E-20
   288.5168  7.809763E-20
   288.6273  7.877858E-20
   288.7377  7.947538E-20
   288.8482  8.038798E-20
   288.9586  8.112168E-20
   289.0691  8.171667E-20
   289.1795  8.246475E-20
   289.2899  8.282699E-20
   289.4003  8.356363E-20
   289.5107  8.458173E-20
   289.6211  8.557511E-20
   289.7315  8.665481E-20
   289.8419  8.782968E-20
   289.9522  8.894590E-20
   290.0626  8.980944E-20
   290.1729  9.035980E-20
   290.2833  9.050182E-20
   290.3936  9.056121E-20
   290.5039  9.072019E-20
   290.6142  9.071614E-20
   290.7245  9.093931E-20
   290.8348  9.157967E-20
   290.9451  9.246313E-20
   291.0554  9.396003E-20
   291.1657  9.545176E-20
   291.2760  9.731311E-20
   291.3862  9.901805E-20
   291.4965  1.002213E-19
   291.6067  1.012320E-19
   291.7170  1.018484E-19
   291.8272  1.022085E-19
   291.9374  1.024088E-19
   292.0476  1.029204E-19
   292.1579  1.035047E-19
   292.2681  1.043885E-19
   292.3783  1.057508E-19
   292.4885  1.068419E-19
   292.5987  1.075011E-19
   292.7088  1.072491E-19
   292.8190  1.061521E-19
   292.9292  1.046995E-19
   293.0393  1.030919E-19
   293.1495  1.017894E-19
   293.2597  1.004770E-19
   293.3698  9.943673E-20
   293.4800  9.873697E-20
   293.5901  9.818513E-20
   293.7002  9.783138E-20
   293.8103  9.731422E-20
   293.9205  9.725224E-20
   294.0306  9.757317E-20
   294.1407  9.806709E-20
   294.2508  9.908482E-20
   294.3609  1.009071E-19
   294.4710  1.029156E-19
   294.5811  1.053373E-19
   294.6912  1.076497E-19
   294.8013  1.094159E-19
   294.9113  1.106435E-19
   295.0214  1.112208E-19
   295.1315  1.106668E-19
   295.2415  1.091149E-19
   295.3516  1.073122E-19
   295.4616  1.052155E-19
   295.5717  1.036028E-19
   295.6817  1.027348E-19
   295.7918  1.022099E-19
   295.9018  1.023708E-19
   296.0118  1.037013E-19
   296.1219  1.058625E-19
   296.2319  1.084089E-19
   296.3419  1.114363E-19
   296.4519  1.144625E-19
   296.5619  1.170398E-19
   296.6719  1.198134E-19
   296.7819  1.223535E-19
   296.8919  1.247213E-19
   297.0019  1.271633E-19
   297.1119  1.302504E-19
   297.2219  1.333803E-19
   297.3319  1.364047E-19
   297.4419  1.388120E-19
   297.5518  1.402218E-19
   297.6618  1.404852E-19
   297.7718  1.395250E-19
   297.8817  1.376109E-19
   297.9917  1.346345E-19
   298.1016  1.321173E-19
   298.2116  1.300693E-19
   298.3215  1.286063E-19
   298.4315  1.277896E-19
   298.5414  1.272477E-19
   298.6513  1.272175E-19
   298.7613  1.270356E-19
   298.8712  1.271290E-19
   298.9811  1.275646E-19
   299.0910  1.286967E-19
   299.2010  1.296768E-19
   299.3109  1.309306E-19
   299.4208  1.318565E-19
   299.5307  1.327219E-19
   299.6406  1.333615E-19
   299.7505  1.341347E-19
   299.8604  1.343331E-19
   299.9703  1.336053E-19
   300.0801  1.321549E-19
   300.1900  1.302338E-19
   300.2999  1.286934E-19
   300.4098  1.276712E-19
   300.5196  1.272068E-19
   300.6295  1.275484E-19
   300.7393  1.282297E-19
   300.8492  1.288623E-19
   300.9591  1.289634E-19
   301.0689  1.288701E-19
   301.1787  1.285798E-19
   301.2886  1.285499E-19
   301.3984  1.295654E-19
   301.5082  1.313507E-19
   301.6181  1.338742E-19
   301.7279  1.365563E-19
   301.8377  1.394708E-19
   301.9475  1.422499E-19
   302.0573  1.449630E-19
   302.1671  1.473909E-19
   302.2769  1.491604E-19
   302.3867  1.505434E-19
   302.4965  1.511686E-19
   302.6063  1.514906E-19
   302.7160  1.519890E-19
   302.8258  1.531303E-19
   302.9356  1.556670E-19
   303.0453  1.582174E-19
   303.1551  1.608272E-19
   303.2648  1.627620E-19
   303.3746  1.637052E-19
   303.4843  1.639181E-19
   303.5940  1.637000E-19
   303.7038  1.628490E-19
   303.8135  1.619859E-19
   303.9232  1.612087E-19
   304.0329  1.607819E-19
   304.1426  1.602883E-19
   304.2523  1.603547E-19
   304.3620  1.610460E-19
   304.4717  1.619660E-19
   304.5814  1.628561E-19
   304.6910  1.638727E-19
   304.8007  1.648104E-19
   304.9104  1.662069E-19
   305.0200  1.673678E-19
   305.1296  1.679030E-19
   305.2393  1.673471E-19
   305.3489  1.665920E-19
   305.4585  1.655677E-19
   305.5681  1.640944E-19
   305.6777  1.628575E-19
   305.7873  1.618527E-19
   305.8969  1.610405E-19
   306.0065  1.606624E-19
   306.1161  1.605203E-19
   306.2257  1.613492E-19
   306.3352  1.624610E-19
   306.4448  1.643780E-19
   306.5543  1.662032E-19
   306.6638  1.680668E-19
   306.7734  1.698400E-19
   306.8829  1.717471E-19
   306.9924  1.740448E-19
   307.1019  1.762750E-19
   307.2114  1.776919E-19
   307.3208  1.782618E-19
   307.4303  1.782810E-19
   307.5398  1.781242E-19
   307.6492  1.771308E-19
   307.7586  1.754738E-19
   307.8681  1.737984E-19
   307.9775  1.725951E-19
   308.0314  1.718456E-19
   308.1468  1.707644E-19
   308.2621  1.699905E-19
   308.3775  1.704752E-19
   308.4929  1.724059E-19
   308.6082  1.755336E-19
   308.7235  1.793013E-19
   308.8388  1.842177E-19
   308.9541  1.894218E-19
   309.0693  1.937088E-19
   309.1845  1.966624E-19
   309.2998  1.977554E-19
   309.4150  1.984485E-19
   309.5301  1.991306E-19
   309.6453  1.985699E-19
   309.7604  1.965945E-19
   309.8756  1.939681E-19
   309.9907  1.914716E-19
   310.1057  1.896556E-19
   310.2208  1.892753E-19
   310.3359  1.889437E-19
   310.4509  1.894911E-19
   310.5659  1.911695E-19
   310.6809  1.936959E-19
   310.7958  1.962091E-19
   310.9108  1.984880E-19
   311.0257  1.993633E-19
   311.1406  2.001822E-19
   311.2555  2.014128E-19
   311.3704  2.030668E-19
   311.4852  2.051407E-19
   311.6001  2.063579E-19
   311.7149  2.062631E-19
   311.8297  2.051949E-19
   311.9444  2.042727E-19
   312.0592  2.046880E-19
   312.1739  2.070691E-19
   312.2886  2.106406E-19
   312.4033  2.149103E-19
   312.5180  2.177322E-19
   312.6326  2.188632E-19
   312.7472  2.188555E-19
   312.8619  2.178492E-19
   312.9764  2.163257E-19
   313.0910  2.146174E-19
   313.2055  2.128483E-19
   313.3201  2.110239E-19
   313.4346  2.088294E-19
   313.5491  2.064955E-19
   313.6635  2.052115E-19
   313.7780  2.046430E-19
   313.8924  2.046478E-19
   314.0068  2.053192E-19
   314.1211  2.064443E-19
   314.2355  2.078334E-19
   314.3498  2.098239E-19
   314.4641  2.123625E-19
   314.5784  2.159299E-19
   314.6927  2.200222E-19
   314.8069  2.241894E-19
   314.9212  2.275653E-19
   315.0354  2.302216E-19
   315.1496  2.316370E-19
   315.2637  2.310173E-19
   315.3779  2.293776E-19
   315.4920  2.272680E-19
   315.6061  2.256601E-19
   315.7202  2.245066E-19
   315.8342  2.234528E-19
   315.9482  2.224391E-19
   316.0622  2.215545E-19
   316.1762  2.203974E-19
   316.2902  2.200687E-19
   316.4041  2.202874E-19
   316.5181  2.208031E-19
   316.6320  2.224251E-19
   316.7458  2.249474E-19
   316.8597  2.275694E-19
   316.9735  2.305318E-19
   317.0873  2.337304E-19
   317.2011  2.372199E-19
   317.3149  2.411562E-19
   317.4286  2.452552E-19
   317.5424  2.496983E-19
   317.6561  2.535597E-19
   317.7697  2.560223E-19
   317.8834  2.568305E-19
   317.9970  2.566984E-19
   318.1106  2.561746E-19
   318.2242  2.558050E-19
   318.3378  2.553612E-19
   318.4513  2.533841E-19
   318.5649  2.512247E-19
   318.6784  2.489277E-19
   318.7918  2.469383E-19
   318.9053  2.451773E-19
   319.0187  2.442765E-19
   319.1321  2.438523E-19
   319.2455  2.440124E-19
   319.3589  2.442441E-19
   319.4722  2.452319E-19
   319.5855  2.472854E-19
   319.6988  2.509480E-19
   319.8121  2.555641E-19
   319.9253  2.602606E-19
   320.0386  2.649472E-19
   320.1518  2.686777E-19
   320.2650  2.715519E-19
   320.3781  2.732702E-19
   320.4912  2.732019E-19
   320.6044  2.715361E-19
   320.7174  2.677835E-19
   320.8305  2.639896E-19
   320.9436  2.607406E-19
   321.0566  2.589688E-19
   321.1696  2.582163E-19
   321.2825  2.573432E-19
   321.3955  2.564369E-19
   321.5084  2.560492E-19
   321.6213  2.565863E-19
   321.7342  2.580503E-19
   321.8471  2.606745E-19
   321.9599  2.637303E-19
   322.0727  2.669893E-19
   322.1855  2.698569E-19
   322.2983  2.724487E-19
   322.4110  2.749921E-19
   322.5237  2.773946E-19
   322.6364  2.798254E-19
   322.7491  2.815920E-19
   322.8618  2.829004E-19
   322.9744  2.830310E-19
   323.0870  2.827407E-19
   323.1996  2.823925E-19
   323.3121  2.818207E-19
   323.4247  2.809826E-19
   323.5372  2.801851E-19
   323.6497  2.797428E-19
   323.7621  2.794101E-19
   323.8746  2.784647E-19
   323.9870  2.772382E-19
   324.0994  2.759840E-19
   324.2118  2.753480E-19
   324.3241  2.753753E-19
   324.4365  2.756734E-19
   324.5488  2.771939E-19
   324.6610  2.794226E-19
   324.7733  2.826798E-19
   324.8855  2.869090E-19
   324.9978  2.917980E-19
   325.1099  2.973887E-19
   325.2221  3.019812E-19
   325.3343  3.055604E-19
   325.4464  3.078500E-19
   325.5585  3.081514E-19
   325.6705  3.068032E-19
   325.7826  3.050562E-19
   325.8946  3.039525E-19
   326.0066  3.036080E-19
   326.1186  3.036017E-19
   326.2306  3.047574E-19
   326.3425  3.065627E-19
   326.4544  3.093477E-19
   326.5663  3.108999E-19
   326.6782  3.103429E-19
   326.7900  3.083709E-19
   326.9018  3.061149E-19
   327.0136  3.041860E-19
   327.1254  3.024781E-19
   327.2372  3.019853E-19
   327.3489  3.031133E-19
   327.4606  3.059300E-19
   327.5723  3.094827E-19
   327.6840  3.131648E-19
   327.7956  3.160074E-19
   327.9072  3.182730E-19
   328.0188  3.189237E-19
   328.1304  3.178016E-19
   328.2419  3.157233E-19
   328.3534  3.132618E-19
   328.4649  3.114038E-19
   328.5764  3.097804E-19
   328.6879  3.084159E-19
   328.7993  3.080813E-19
   328.9107  3.090334E-19
   329.0221  3.121556E-19
   329.1335  3.160443E-19
   329.2448  3.197404E-19
   329.3561  3.231838E-19
   329.4674  3.271895E-19
   329.5787  3.315311E-19
   329.6900  3.349860E-19
   329.8012  3.371653E-19
   329.9124  3.384025E-19
   330.0236  3.375622E-19
   330.1348  3.346566E-19
   330.2459  3.303194E-19
   330.3570  3.259589E-19
   330.4681  3.222325E-19
   330.5792  3.199813E-19
   330.6902  3.195866E-19
   330.8013  3.203494E-19
   330.9123  3.213970E-19
   331.0232  3.232735E-19
   331.1342  3.255015E-19
   331.2451  3.270478E-19
   331.3561  3.284643E-19
   331.4670  3.290807E-19
   331.5778  3.293913E-19
   331.6887  3.295281E-19
   331.7995  3.292932E-19
   331.9103  3.286805E-19
   332.0211  3.283617E-19
   332.1319  3.297672E-19
   332.2426  3.333146E-19
   332.3533  3.395243E-19
   332.4640  3.489369E-19
   332.5747  3.591666E-19
   332.6853  3.699824E-19
   332.7960  3.804695E-19
   332.9066  3.896619E-19
   333.0172  3.955713E-19
   333.1277  3.973714E-19
   333.2383  3.948962E-19
   333.3488  3.888467E-19
   333.4593  3.798904E-19
   333.5698  3.708750E-19
   333.6802  3.634086E-19
   333.7907  3.573546E-19
   333.9011  3.518632E-19
   334.0115  3.453156E-19
   334.1219  3.387663E-19
   334.2322  3.333408E-19
   334.3425  3.310947E-19
   334.4529  3.317609E-19
   334.5631  3.343744E-19
   334.6734  3.392543E-19
   334.7836  3.470534E-19
   334.8939  3.581426E-19
   335.0041  3.704435E-19
   335.1143  3.782231E-19
   335.2244  3.783485E-19
   335.3346  3.730330E-19
   335.4447  3.663740E-19
   335.5548  3.609870E-19
   335.6648  3.568736E-19
   335.7749  3.546703E-19
   335.8849  3.543686E-19
   335.9949  3.563797E-19
   336.1049  3.604576E-19
   336.2149  3.652464E-19
   336.3249  3.693295E-19
   336.4348  3.723653E-19
   336.5447  3.740179E-19
   336.6546  3.747962E-19
   336.7645  3.754934E-19
   336.8743  3.763750E-19
   336.9841  3.757221E-19
   337.0940  3.728116E-19
   337.2037  3.684980E-19
   337.3135  3.647004E-19
   337.4233  3.600556E-19
   337.5330  3.556460E-19
   337.6427  3.525430E-19
   337.7524  3.501450E-19
   337.8620  3.486411E-19
   337.9717  3.490188E-19
   338.0813  3.530554E-19
   338.1909  3.613957E-19
   338.3005  3.734203E-19
   338.4101  3.875077E-19
   338.5196  4.018680E-19
   338.6292  4.134286E-19
   338.7387  4.199023E-19
   338.8482  4.235948E-19
   338.9576  4.258818E-19
   339.0671  4.273130E-19
   339.1765  4.269847E-19
   339.2859  4.246940E-19
   339.3953  4.200757E-19
   339.5047  4.139192E-19
   339.6140  4.080983E-19
   339.7234  4.030668E-19
   339.8327  4.004146E-19
   339.9420  3.999498E-19
   340.0512  4.008056E-19
   340.1605  4.019676E-19
   340.2697  4.033140E-19
   340.3790  4.049555E-19
   340.4882  4.068736E-19
   340.5973  4.093414E-19
   340.7065  4.120158E-19
   340.8156  4.158041E-19
   340.9248  4.220160E-19
   341.0339  4.293345E-19
   341.1430  4.367673E-19
   341.2520  4.419426E-19
   341.3611  4.446391E-19
   341.4701  4.446170E-19
   341.5791  4.427210E-19
   341.6881  4.396851E-19
   341.7971  4.366862E-19
   341.9061  4.318133E-19
   342.0150  4.245502E-19
   342.1239  4.155201E-19
   342.2328  4.065306E-19
   342.3417  3.988285E-19
   342.4506  3.925317E-19
   342.5594  3.876073E-19
   342.6683  3.840033E-19
   342.7771  3.802851E-19
   342.8859  3.760172E-19
   342.9947  3.737154E-19
   343.1034  3.729998E-19
   343.2122  3.742207E-19
   343.3209  3.789313E-19
   343.4296  3.875519E-19
   343.5383  3.964640E-19
   343.6470  4.031886E-19
   343.7556  4.074933E-19
   343.8643  4.106915E-19
   343.9729  4.126539E-19
   344.0815  4.126982E-19
   344.1901  4.117280E-19
   344.2987  4.101714E-19
   344.4072  4.091090E-19
   344.5158  4.096144E-19
   344.6243  4.124068E-19
   344.7328  4.166636E-19
   344.8413  4.204741E-19
   344.9498  4.228017E-19
   345.0582  4.241444E-19
   345.1666  4.254687E-19
   345.2751  4.268667E-19
   345.3835  4.277668E-19
   345.4919  4.264351E-19
   345.6002  4.237681E-19
   345.7086  4.230156E-19
   345.8169  4.255683E-19
   345.9253  4.316067E-19
   346.0336  4.397478E-19
   346.1419  4.477709E-19
   346.2501  4.543738E-19
   346.3584  4.584056E-19
   346.4666  4.608586E-19
   346.5749  4.637063E-19
   346.6831  4.668565E-19
   346.7913  4.699883E-19
   346.8995  4.702723E-19
   347.0076  4.673065E-19
   347.1158  4.623968E-19
   347.2239  4.566608E-19
   347.3320  4.523339E-19
   347.4401  4.493607E-19
   347.5482  4.476418E-19
   347.6563  4.471217E-19
   347.7644  4.476787E-19
   347.8724  4.514633E-19
   347.9805  4.594458E-19
   348.0885  4.741676E-19
   348.1965  4.974732E-19
   348.3045  5.214169E-19
   348.4124  5.390012E-19
   348.5204  5.475296E-19
   348.6283  5.454934E-19
   348.7363  5.351686E-19
   348.8442  5.231506E-19
   348.9521  5.109593E-19
   349.0599  4.974400E-19
   349.1678  4.816706E-19
   349.2757  4.636030E-19
   349.3835  4.464466E-19
   349.4913  4.339897E-19
   349.5992  4.269810E-19
   349.7070  4.231927E-19
   349.8147  4.207692E-19
   349.9225  4.204999E-19
   350.0303  4.223074E-19
   350.1380  4.257306E-19
   350.2458  4.288549E-19
   350.3535  4.334069E-19
   350.4612  4.407475E-19
   350.5689  4.493976E-19
   350.6765  4.572325E-19
   350.7842  4.622493E-19
   350.8919  4.673287E-19
   350.9995  4.715966E-19
   351.1071  4.754771E-19
   351.2147  4.794905E-19
   351.3223  4.811800E-19
   351.4299  4.781921E-19
   351.5375  4.724155E-19
   351.6451  4.634223E-19
   351.7526  4.530716E-19
   351.8601  4.449490E-19
   351.9677  4.426103E-19
   352.0752  4.465720E-19
   352.1827  4.552000E-19
   352.2901  4.639645E-19
   352.3976  4.680037E-19
   352.5051  4.666942E-19
   352.6125  4.622161E-19
   352.7200  4.530274E-19
   352.8274  4.410426E-19
   352.9348  4.291906E-19
   353.0422  4.213114E-19
   353.1496  4.189506E-19
   353.2570  4.201753E-19
   353.3643  4.244137E-19
   353.4717  4.321158E-19
   353.5790  4.419463E-19
   353.6864  4.531159E-19
   353.7937  4.663216E-19
   353.9010  4.821353E-19
   354.0083  4.975949E-19
   354.1156  5.126340E-19
   354.2228  5.299048E-19
   354.3301  5.466775E-19
   354.4374  5.590127E-19
   354.5446  5.651803E-19
   354.6518  5.658148E-19
   354.7591  5.623179E-19
   354.8663  5.568548E-19
   354.9735  5.494330E-19
   355.0806  5.386508E-19
   355.1878  5.266255E-19
   355.2950  5.151497E-19
   355.4021  5.036297E-19
   355.5093  4.944595E-19
   355.6164  4.869270E-19
   355.7236  4.795938E-19
   355.8307  4.728655E-19
   355.9378  4.680886E-19
   356.0449  4.678709E-19
   356.1520  4.714675E-19
   356.2590  4.775539E-19
   356.3661  4.843117E-19
   356.4731  4.907265E-19
   356.5802  4.989339E-19
   356.6872  5.101109E-19
   356.7943  5.239327E-19
   356.9013  5.378430E-19
   357.0083  5.513217E-19
   357.1153  5.648447E-19
   357.2223  5.750810E-19
   357.3292  5.798432E-19
   357.4362  5.780984E-19
   357.5432  5.734764E-19
   357.6501  5.681240E-19
   357.7571  5.584852E-19
   357.8640  5.486510E-19
   357.9709  5.423949E-19
   358.0778  5.377139E-19
   358.1848  5.311110E-19
   358.2917  5.251610E-19
   358.3985  5.195762E-19
   358.5054  5.140615E-19
   358.6123  5.075988E-19
   358.7192  5.008890E-19
   358.8260  4.955735E-19
   358.9329  4.890776E-19
   359.0397  4.817111E-19
   359.1465  4.753111E-19
   359.2534  4.744554E-19
   359.3602  4.760969E-19
   359.4670  4.774469E-19
   359.5738  4.776092E-19
   359.6806  4.772293E-19
   359.7874  4.777088E-19
   359.8942  4.773031E-19
   360.0009  4.757206E-19
   360.1077  4.752263E-19
   360.2144  4.793171E-19
   360.3212  4.879451E-19
   360.4279  4.976281E-19
   360.5347  5.072742E-19
   360.6414  5.168134E-19
   360.7481  5.278723E-19
   360.8548  5.383852E-19
   360.9615  5.447483E-19
   361.0682  5.488650E-19
   361.1749  5.503589E-19
   361.2816  5.496839E-19
   361.3883  5.460468E-19
   361.4950  5.403034E-19
   361.6016  5.336857E-19
   361.7083  5.271714E-19
   361.8149  5.224461E-19
   361.9216  5.198640E-19
   362.0282  5.188237E-19
   362.1348  5.203915E-19
   362.2415  5.231064E-19
   362.3481  5.270312E-19
   362.4547  5.293957E-19
   362.5613  5.317528E-19
   362.6679  5.336230E-19
   362.7745  5.330955E-19
   362.8811  5.323172E-19
   362.9877  5.339329E-19
   363.0943  5.350801E-19
   363.2008  5.330771E-19
   363.3074  5.301039E-19
   363.4140  5.279866E-19
   363.5205  5.262861E-19
   363.6271  5.219002E-19
   363.7336  5.148546E-19
   363.8402  5.083108E-19
   363.9467  5.050499E-19
   364.0532  5.076284E-19
   364.1597  5.152272E-19
   364.2663  5.246003E-19
   364.3728  5.346079E-19
   364.4793  5.429740E-19
   364.5858  5.508790E-19
   364.6923  5.609493E-19
   364.7988  5.719898E-19
   364.9053  5.801899E-19
   365.0118  5.869366E-19
   365.1183  5.964057E-19
   365.2247  6.087446E-19
   365.3312  6.195858E-19
   365.4377  6.255247E-19
   365.5441  6.238869E-19
   365.6506  6.205744E-19
   365.7571  6.161331E-19
   365.8635  6.068670E-19
   365.9700  5.955462E-19
   366.0764  5.835651E-19
   366.1828  5.699093E-19
   366.2893  5.545936E-19
   366.3957  5.402222E-19
   366.5021  5.299232E-19
   366.6086  5.235490E-19
   366.7150  5.209595E-19
   366.8214  5.214981E-19
   366.9278  5.257844E-19
   367.0342  5.343792E-19
   367.1406  5.436159E-19
   367.2470  5.536382E-19
   367.3534  5.656377E-19
   367.4598  5.753318E-19
   367.5662  5.785078E-19
   367.6726  5.776963E-19
   367.7790  5.740481E-19
   367.8854  5.717058E-19
   367.9918  5.714697E-19
   368.0982  5.708610E-19
   368.2045  5.678510E-19
   368.3109  5.629118E-19
   368.4173  5.578065E-19
   368.5236  5.547707E-19
   368.6300  5.533025E-19
   368.7364  5.487580E-19
   368.8427  5.424539E-19
   368.9491  5.415391E-19
   369.0554  5.446155E-19
   369.1618  5.487285E-19
   369.2681  5.550104E-19
   369.3745  5.599718E-19
   369.4808  5.599976E-19
   369.5872  5.582233E-19
   369.6935  5.566482E-19
   369.7999  5.541878E-19
   369.9062  5.516684E-19
   370.0125  5.540219E-19
   370.1189  5.599755E-19
   370.2252  5.628048E-19
   370.3315  5.609715E-19
   370.4379  5.571425E-19
   370.5442  5.514840E-19
   370.6505  5.437118E-19
   370.7569  5.348366E-19
   370.8632  5.252090E-19
   370.9695  5.199119E-19
   371.0758  5.230363E-19
   371.1821  5.326935E-19
   371.2885  5.419633E-19
   371.3948  5.475112E-19
   371.5011  5.561208E-19
   371.6074  5.691900E-19
   371.7137  5.850000E-19
   371.8200  6.000428E-19
   371.9263  6.123817E-19
   372.0326  6.220315E-19
   372.1390  6.285790E-19
   372.2453  6.274761E-19
   372.3516  6.253772E-19
   372.4579  6.269117E-19
   372.5642  6.282913E-19
   372.6705  6.264986E-19
   372.7768  6.197260E-19
   372.8831  6.089290E-19
   372.9894  5.969037E-19
   373.0957  5.859148E-19
   373.2020  5.780615E-19
   373.3083  5.717205E-19
   373.4146  5.670137E-19
   373.5209  5.612186E-19
   373.6272  5.562019E-19
   373.7335  5.554531E-19
   373.8398  5.596546E-19
   373.9461  5.671686E-19
   374.0524  5.729415E-19
   374.1587  5.712631E-19
   374.2650  5.672608E-19
   374.3713  5.609235E-19
   374.4776  5.501560E-19
   374.5839  5.398275E-19
   374.6902  5.350690E-19
   374.7965  5.346042E-19
   374.9028  5.373450E-19
   375.0091  5.427232E-19
   375.1154  5.525611E-19
   375.2217  5.686625E-19
   375.3280  5.851771E-19
   375.4343  5.973943E-19
   375.5406  6.063579E-19
   375.6469  6.119981E-19
   375.7532  6.159155E-19
   375.8595  6.189956E-19
   375.9659  6.196559E-19
   376.0722  6.265391E-19
   376.1785  6.444185E-19
   376.2848  6.641349E-19
   376.3911  6.771636E-19
   376.4974  6.786982E-19
   376.6037  6.720141E-19
   376.7100  6.617852E-19
   376.8163  6.519547E-19
   376.9226  6.379890E-19
   377.0290  6.203974E-19
   377.1353  6.039271E-19
   377.2416  5.919718E-19
   377.3479  5.788287E-19
   377.4542  5.636089E-19
   377.5605  5.507905E-19
   377.6669  5.458033E-19
   377.7732  5.439921E-19
   377.8795  5.441249E-19
   377.9858  5.484260E-19
   378.0922  5.513143E-19
   378.1985  5.465964E-19
   378.3048  5.405911E-19
   378.4112  5.386988E-19
   378.5175  5.421330E-19
   378.6238  5.463935E-19
   378.7302  5.478321E-19
   378.8365  5.510229E-19
   378.9428  5.558404E-19
   379.0492  5.608940E-19
   379.1555  5.678510E-19
   379.2619  5.758372E-19
   379.3682  5.870657E-19
   379.4746  6.021491E-19
   379.5809  6.209765E-19
   379.6872  6.401617E-19
   379.7936  6.539503E-19
   379.9000  6.599999E-19
   380.0063  6.607155E-19
   380.1127  6.546512E-19
   380.2190  6.454735E-19
   380.3254  6.395826E-19
   380.4318  6.368935E-19
   380.5381  6.355581E-19
   380.6445  6.360856E-19
   380.7509  6.367496E-19
   380.8572  6.342892E-19
   380.9636  6.264764E-19
   381.0700  6.186415E-19
   381.1764  6.126251E-19
   381.2827  6.093458E-19
   381.3891  6.057973E-19
   381.4955  6.027282E-19
   381.6019  6.006846E-19
   381.7083  6.029458E-19
   381.8147  6.062805E-19
   381.9211  6.049636E-19
   382.0275  6.009392E-19
   382.1339  6.007658E-19
   382.2403  6.035729E-19
   382.3467  5.992940E-19
   382.4531  5.850627E-19
   382.5595  5.694888E-19
   382.6659  5.608239E-19
   382.7723  5.621224E-19
   382.8787  5.678362E-19
   382.9851  5.698392E-19
   383.0916  5.683195E-19
   383.1980  5.701602E-19
   383.3044  5.783123E-19
   383.4108  5.855939E-19
   383.5173  5.875268E-19
   383.6237  5.854574E-19
   383.7301  5.884675E-19
   383.8366  5.988034E-19
   383.9430  6.103307E-19
   384.0495  6.195748E-19
   384.1559  6.195157E-19
   384.2623  6.132412E-19
   384.3688  6.114964E-19
   384.4753  6.191210E-19
   384.5817  6.296746E-19
   384.6882  6.364656E-19
   384.7946  6.436882E-19
   384.9011  6.517444E-19
   385.0076  6.490258E-19
   385.1140  6.374615E-19
   385.2205  6.234037E-19
   385.3270  6.147314E-19
   385.4334  6.128834E-19
   385.5399  6.120866E-19
   385.6464  6.160520E-19
   385.7529  6.294274E-19
   385.8594  6.369673E-19
   385.9659  6.297926E-19
   386.0724  6.139937E-19
   386.1789  5.993936E-19
   386.2854  5.880506E-19
   386.3919  5.783935E-19
   386.4984  5.710196E-19
   386.6049  5.679100E-19
   386.7114  5.697323E-19
   386.8179  5.766856E-19
   386.9244  5.878109E-19
   387.0309  5.986779E-19
   387.1374  6.062178E-19
   387.2440  6.118800E-19
   387.3505  6.167307E-19
   387.4570  6.218323E-19
   387.5636  6.256096E-19
   387.6701  6.261850E-19
   387.7766  6.262219E-19
   387.8832  6.291840E-19
   387.9897  6.319764E-19
   388.0963  6.298811E-19
   388.2028  6.240345E-19
   388.3093  6.178447E-19
   388.4159  6.114669E-19
   388.5225  6.073170E-19
   388.6290  6.054948E-19
   388.7356  6.068854E-19
   388.8421  6.108213E-19
   388.9487  6.176566E-19
   389.0553  6.290143E-19
   389.1618  6.422274E-19
   389.2684  6.512243E-19
   389.3750  6.517333E-19
   389.4816  6.480188E-19
   389.5882  6.407224E-19
   389.6947  6.299881E-19
   389.8013  6.211904E-19
   389.9079  6.202535E-19
   390.0145  6.257424E-19
   390.1211  6.296229E-19
   390.2277  6.312607E-19
   390.3343  6.358385E-19
   390.4409  6.392838E-19
   390.5475  6.363143E-19
   390.6541  6.291582E-19
   390.7607  6.228873E-19
   390.8673  6.179111E-19
   390.9739  6.149269E-19
   391.0805  6.161147E-19
   391.1872  6.208474E-19
   391.2938  6.246542E-19
   391.4004  6.240345E-19
   391.5070  6.246984E-19
   391.6136  6.376275E-19
   391.7203  6.591588E-19
   391.8269  6.826230E-19
   391.9335  6.952607E-19
   392.0402  6.862859E-19
   392.1468  6.645149E-19
   392.2534  6.458977E-19
   392.3601  6.378821E-19
   392.4667  6.361188E-19
   392.5734  6.347577E-19
   392.6800  6.349569E-19
   392.7867  6.347761E-19
   392.8933  6.322346E-19
   393.0000  6.211609E-19
   393.1066  6.011789E-19
   393.2133  5.812891E-19
   393.3199  5.685076E-19
   393.4266  5.626609E-19
   393.5333  5.663607E-19
   393.6399  5.748080E-19
   393.7466  5.823700E-19
   393.8532  5.858374E-19
   393.9599  5.844910E-19
   394.0666  5.844504E-19
   394.1732  5.825618E-19
   394.2799  5.753982E-19
   394.3866  5.697765E-19
   394.4933  5.679358E-19
   394.5999  5.669878E-19
   394.7066  5.661468E-19
   394.8133  5.670911E-19
   394.9200  5.774123E-19
   395.0267  5.908025E-19
   395.1333  5.999026E-19
   395.2400  6.101279E-19
   395.3467  6.252333E-19
   395.4534  6.442636E-19
   395.5601  6.598449E-19
   395.6668  6.593322E-19
   395.7734  6.569640E-19
   395.8801  6.611175E-19
   395.9868  6.693767E-19
   396.0935  6.620619E-19
   396.2002  6.458793E-19
   396.3069  6.287155E-19
   396.4136  6.172693E-19
   396.5203  6.035692E-19
   396.6270  5.925103E-19
   396.7337  5.821376E-19
   396.8404  5.760364E-19
   396.9470  5.765675E-19
   397.0537  5.782828E-19
   397.1604  5.804186E-19
   397.2671  5.806178E-19
   397.3738  5.757007E-19
   397.4805  5.723439E-19
   397.5872  5.727165E-19
   397.6939  5.886224E-19
   397.8006  6.100319E-19
   397.9073  6.315411E-19
   398.0140  6.572185E-19
   398.1207  6.726191E-19
   398.2274  6.806200E-19
   398.3341  6.885582E-19
   398.4408  6.998901E-19
   398.5475  7.139774E-19
   398.6541  7.098276E-19
   398.7608  6.904247E-19
   398.8675  6.662228E-19
   398.9742  6.347983E-19
   399.0809  6.079773E-19
   399.1876  5.937239E-19
   399.2943  5.863538E-19
   399.4010  5.844504E-19
   399.5076  5.939305E-19
   399.6143  6.106738E-19
   399.7210  6.247095E-19
   399.8277  6.386604E-19
   399.9344  6.566541E-19
   400.1230  6.852088E-19
   400.3704  6.946963E-19
   400.6177  6.878094E-19
   400.8650  6.800519E-19
   401.1122  6.738548E-19
   401.3594  6.637513E-19
   401.6066  6.482917E-19
   401.8537  6.317108E-19
   402.1007  6.099176E-19
   402.3477  5.871690E-19
   402.5947  5.711783E-19
   402.8416  5.632585E-19
   403.0885  5.605989E-19
   403.3354  5.607833E-19
   403.5821  5.704922E-19
   403.8289  5.948527E-19
   404.0756  6.204047E-19
   404.3223  6.244587E-19
   404.5689  6.158233E-19
   404.8154  6.228614E-19
   405.0620  6.488377E-19
   405.3084  6.673663E-19
   405.5549  6.517961E-19
   405.8013  6.149195E-19
   406.0476  5.903266E-19
   406.2939  5.808207E-19
   406.5402  5.638118E-19
   406.7864  5.381270E-19
   407.0325  5.203915E-19
   407.2787  5.175179E-19
   407.5248  5.299748E-19
   407.7708  5.615838E-19
   408.0168  6.086560E-19
   408.2627  6.605716E-19
   408.5086  6.988240E-19
   408.7545  6.980973E-19
   409.0003  6.700517E-19
   409.2461  6.474212E-19
   409.4918  6.427475E-19
   409.7375  6.386936E-19
   409.9831  6.305119E-19
   410.2287  6.435185E-19
   410.4743  6.736925E-19
   410.7198  6.808745E-19
   410.9652  6.557430E-19
   411.2106  6.168525E-19
   411.4560  5.815142E-19
   411.7013  5.597763E-19
   411.9466  5.531181E-19
   412.1919  5.533247E-19
   412.4371  5.640626E-19
   412.6822  5.940818E-19
   412.9273  6.378747E-19
   413.1724  6.886320E-19
   413.4174  7.346972E-19
   413.6624  7.412115E-19
   413.9073  6.906350E-19
   414.1522  6.238316E-19
   414.3971  5.881429E-19
   414.6419  5.874641E-19
   414.8866  5.977299E-19
   415.1314  5.974127E-19
   415.3760  5.740887E-19
   415.6207  5.385364E-19
   415.8653  5.155370E-19
   416.1098  5.098453E-19
   416.3543  5.104613E-19
   416.5988  5.127594E-19
   416.8432  5.178757E-19
   417.0875  5.331878E-19
   417.3319  5.512811E-19
   417.5762  5.597210E-19
   417.8204  5.639963E-19
   418.0646  5.730116E-19
   418.3087  5.836868E-19
   418.5529  5.905037E-19
   418.7969  5.821486E-19
   419.0410  5.710233E-19
   419.2849  5.815879E-19
   419.5289  6.052513E-19
   419.7728  6.176197E-19
   420.0166  6.159745E-19
   420.2604  6.135363E-19
   420.5042  6.149527E-19
   420.7479  6.196116E-19
   420.9916  6.235586E-19
   421.2353  6.122747E-19
   421.4789  5.957122E-19
   421.7224  6.012490E-19
   421.9659  6.245620E-19
   422.2094  6.349606E-19
   422.4528  6.265096E-19
   422.6962  6.137613E-19
   422.9396  6.022708E-19
   423.1829  6.004744E-19
   423.4261  6.132449E-19
   423.6694  6.274466E-19
   423.9125  6.364730E-19
   424.1557  6.428766E-19
   424.3988  6.519104E-19
   424.6418  6.545589E-19
   424.8848  6.309952E-19
   425.1278  5.888659E-19
   425.3707  5.558921E-19
   425.6136  5.316717E-19
   425.8565  5.031982E-19
   426.0993  4.767276E-19
   426.3420  4.650343E-19
   426.5848  4.629575E-19
   426.8274  4.761079E-19
   427.0701  5.167174E-19
   427.3127  5.684080E-19
   427.5552  5.996739E-19
   427.7977  6.110869E-19
   428.0402  6.159967E-19
   428.2826  6.085528E-19
   428.5250  5.823773E-19
   428.7674  5.496654E-19
   429.0097  5.202623E-19
   429.2520  4.887714E-19
   429.4942  4.602721E-19
   429.7364  4.474352E-19
   429.9785  4.599438E-19
   430.2206  5.016858E-19
   430.4627  5.585480E-19
   430.7047  6.006809E-19
   430.9467  6.156499E-19
   431.1887  6.090434E-19
   431.4306  5.935506E-19
   431.6724  5.707725E-19
   431.9143  5.362826E-19
   432.1560  4.984286E-19
   432.3978  4.695272E-19
   432.6395  4.589847E-19
   432.8812  4.724745E-19
   433.1228  5.023534E-19
   433.3644  5.350948E-19
   433.6059  5.641364E-19
   433.8474  5.833327E-19
   434.0889  5.798026E-19
   434.3303  5.633802E-19
   434.5717  5.713516E-19
   434.8131  6.248239E-19
   435.0544  6.873262E-19
   435.2957  6.931618E-19
   435.5369  6.507189E-19
   435.7781  6.138314E-19
   436.0192  5.903598E-19
   436.2604  5.704811E-19
   436.5014  5.487949E-19
   436.7425  5.238183E-19
   436.9835  4.893653E-19
   437.2244  4.525995E-19
   437.4654  4.275417E-19
   437.7062  4.147307E-19
   437.9471  4.071835E-19
   438.1879  4.097656E-19
   438.4287  4.465241E-19
   438.6694  5.264041E-19
   438.9101  6.150007E-19
   439.1508  6.654998E-19
   439.3914  6.779973E-19
   439.6320  6.548171E-19
   439.8725  6.146798E-19
   440.1130  5.737604E-19
   440.3535  5.152014E-19
   440.5939  4.630239E-19
   440.8343  4.404266E-19
   441.0747  4.324921E-19
   441.3150  4.153947E-19
   441.5553  3.915358E-19
   441.7955  3.760024E-19
   442.0357  3.764266E-19
   442.2759  3.889241E-19
   442.5160  3.998023E-19
   442.7561  4.127424E-19
   442.9962  4.271507E-19
   443.2362  4.363616E-19
   443.4762  4.471549E-19
   443.7161  4.558198E-19
   443.9561  4.649199E-19
   444.1959  4.945628E-19
   444.4358  5.433835E-19
   444.6756  6.024479E-19
   444.9154  6.376644E-19
   445.1551  6.102680E-19
   445.3948  5.622847E-19
   445.6345  5.276472E-19
   445.8741  5.014312E-19
   446.1137  4.781994E-19
   446.3532  4.485898E-19
   446.5928  4.214036E-19
   446.8323  4.151364E-19
   447.0717  4.290209E-19
   447.3111  4.625407E-19
   447.5505  5.238515E-19
   447.7899  6.093753E-19
   448.0292  6.836522E-19
   448.2684  6.932356E-19
   448.5077  6.257239E-19
   448.7469  5.548444E-19
   448.9861  5.120364E-19
   449.2252  4.810287E-19
   449.4643  4.507772E-19
   449.7034  4.229271E-19
   449.9424  4.081204E-19
   450.1814  4.231079E-19
   450.4204  4.469557E-19
   450.6593  4.585015E-19
   450.8982  4.540418E-19
   451.1371  4.429349E-19
   451.3759  4.312010E-19
   451.6147  4.259150E-19
   451.8535  4.417508E-19
   452.0922  4.587117E-19
   452.3309  4.619652E-19
   452.5696  4.671959E-19
   452.8083  4.609877E-19
   453.0469  4.444621E-19
   453.2854  4.471180E-19
   453.5240  4.454986E-19
   453.7625  4.157193E-19
   454.0009  3.858698E-19
   454.2394  3.777214E-19
   454.4778  4.018754E-19
   454.7162  4.391207E-19
   454.9545  4.515482E-19
   455.1928  4.406294E-19
   455.4311  4.236317E-19
   455.6693  4.131962E-19
   455.9076  4.200351E-19
   456.1457  4.199650E-19
   456.3839  3.956561E-19
   456.6220  3.610231E-19
   456.8601  3.466691E-19
   457.0982  3.661029E-19
   457.3362  4.140704E-19
   457.5742  4.644588E-19
   457.8122  4.938656E-19
   458.0501  4.985614E-19
   458.2880  4.855880E-19
   458.5259  4.733192E-19
   458.7637  4.531196E-19
   459.0015  4.141073E-19
   459.2393  3.959549E-19
   459.4771  4.066302E-19
   459.7148  4.197990E-19
   459.9525  4.311198E-19
   460.1901  4.525368E-19
   460.4278  4.783691E-19
   460.6654  4.809328E-19
   460.9030  4.590991E-19
   461.1405  4.399028E-19
   461.3780  4.236132E-19
   461.6155  4.009347E-19
   461.8530  3.792006E-19
   462.0904  3.711259E-19
   462.3278  3.754344E-19
   462.5652  3.990313E-19
   462.8025  4.600360E-19
   463.0398  5.282006E-19
   463.2771  5.507315E-19
   463.5144  5.373597E-19
   463.7516  5.004943E-19
   463.9888  4.618951E-19
   464.2260  4.395560E-19
   464.4631  4.293455E-19
   464.7002  4.162800E-19
   464.9373  3.938486E-19
   465.1744  3.667787E-19
   465.4114  3.320217E-19
   465.6484  3.004954E-19
   465.8854  2.870097E-19
   466.1223  2.928785E-19
   466.3593  3.184940E-19
   466.5962  3.600286E-19
   466.8330  4.062871E-19
   467.0699  4.314813E-19
   467.3067  4.216434E-19
   467.5435  4.049776E-19
   467.7802  4.045903E-19
   468.0170  4.083602E-19
   468.2537  3.857186E-19
   468.4904  3.544438E-19
   468.7270  3.425373E-19
   468.9637  3.387213E-19
   469.2003  3.315577E-19
   469.4369  3.184113E-19
   469.6734  3.044977E-19
   469.9100  3.079275E-19
   470.1465  3.227534E-19
   470.3830  3.348193E-19
   470.6194  3.332243E-19
   470.8558  3.193390E-19
   471.0922  3.094753E-19
   471.3286  3.065103E-19
   471.5650  3.128516E-19
   471.8013  3.305027E-19
   472.0376  3.404730E-19
   472.2739  3.347640E-19
   472.5102  3.235789E-19
   472.7464  3.240566E-19
   472.9826  3.308871E-19
   473.2188  3.438401E-19
   473.4550  3.762164E-19
   473.6911  4.271692E-19
   473.9272  4.779781E-19
   474.1633  4.870893E-19
   474.3994  4.624558E-19
   474.6355  4.561407E-19
   474.8715  4.617660E-19
   475.1075  4.494530E-19
   475.3435  4.291500E-19
   475.5794  3.996806E-19
   475.8154  3.722436E-19
   476.0513  3.587534E-19
   476.2872  3.483331E-19
   476.5230  3.365593E-19
   476.7589  3.270460E-19
   476.9947  3.196618E-19
   477.2305  3.151372E-19
   477.4663  3.158410E-19
   477.7021  3.176363E-19
   477.9378  3.188444E-19
   478.1735  3.120102E-19
   478.4092  3.054431E-19
   478.6449  3.093399E-19
   478.8805  3.199174E-19
   479.1162  3.336138E-19
   479.3518  3.605952E-19
   479.5874  3.938671E-19
   479.8230  4.072130E-19
   480.0585  3.861170E-19
   480.2940  3.565793E-19
   480.5296  3.455296E-19
   480.7650  3.378345E-19
   481.0005  3.333360E-19
   481.2360  3.464684E-19
   481.4714  3.546312E-19
   481.7068  3.396217E-19
   481.9422  3.178576E-19
   482.1776  2.960807E-19
   482.4129  2.816182E-19
   482.6483  2.721650E-19
   482.8836  2.575026E-19
   483.1189  2.412410E-19
   483.3542  2.354899E-19
   483.5894  2.320169E-19
   483.8247  2.323286E-19
   484.0599  2.409791E-19
   484.2951  2.514202E-19
   484.5303  2.602437E-19
   484.7655  2.663449E-19
   485.0006  2.692907E-19
   485.2358  2.702509E-19
   485.4709  2.667023E-19
   485.7060  2.679934E-19
   485.9411  2.754170E-19
   486.1762  2.800460E-19
   486.4112  2.663574E-19
   486.6462  2.510159E-19
   486.8813  2.511011E-19
   487.1163  2.478852E-19
   487.3512  2.461275E-19
   487.5862  2.570053E-19
   487.8212  2.755273E-19
   488.0561  2.986802E-19
   488.2910  3.374826E-19
   488.5259  3.871609E-19
   488.7608  4.301497E-19
   488.9957  4.348455E-19
   489.2305  4.035796E-19
   489.4654  3.811482E-19
   489.7002  3.610677E-19
   489.9350  3.325739E-19
   490.1698  3.149642E-19
   490.4046  3.033191E-19
   490.6394  2.818661E-19
   490.8741  2.583252E-19
   491.1089  2.365936E-19
   491.3436  2.230688E-19
   491.5783  2.230806E-19
   491.8130  2.366611E-19
   492.0477  2.529835E-19
   492.2824  2.529160E-19
   492.5170  2.425236E-19
   492.7517  2.410337E-19
   492.9863  2.484566E-19
   493.2209  2.638103E-19
   493.4555  2.805499E-19
   493.6901  2.876412E-19
   493.9247  2.914000E-19
   494.1592  3.023748E-19
   494.3938  3.197850E-19
   494.6283  3.339041E-19
   494.8628  3.331531E-19
   495.0974  3.162091E-19
   495.3319  3.002475E-19
   495.5664  3.025497E-19
   495.8008  3.115845E-19
   496.0353  3.121615E-19
   496.2698  3.104514E-19
   496.5042  3.112928E-19
   496.7386  3.085789E-19
   496.9731  2.866777E-19
   497.2075  2.577822E-19
   497.4419  2.375088E-19
   497.6763  2.208489E-19
   497.9106  2.119365E-19
   498.1450  2.039226E-19
   498.3794  1.907545E-19
   498.6137  1.822866E-19
   498.8480  1.787317E-19
   499.0824  1.727239E-19
   499.3167  1.644135E-19
   499.5510  1.560027E-19
   499.7853  1.536545E-19
   500.0196  1.541196E-19
   500.2539  1.547419E-19
   500.4881  1.590810E-19
   500.7224  1.648797E-19
   500.9566  1.751120E-19
   501.1909  1.854851E-19
   501.4251  1.843021E-19
   501.6593  1.837053E-19
   501.8936  1.944473E-19
   502.1278  2.108793E-19
   502.3620  2.306034E-19
   502.5962  2.485049E-19
   502.8304  2.675297E-19
   503.0645  2.673386E-19
   503.2987  2.428327E-19
   503.5329  2.205032E-19
   503.7670  2.114060E-19
   504.0012  2.173331E-19
   504.2353  2.422639E-19
   504.4694  2.743148E-19
   504.7036  3.064273E-19
   504.9377  3.193962E-19
   505.1718  3.034822E-19
   505.4059  2.784577E-19
   505.6400  2.494500E-19
   505.8741  2.264063E-19
   506.1082  2.202332E-19
   506.3423  2.252060E-19
   506.5764  2.238803E-19
   506.8104  2.162427E-19
   507.0445  2.074970E-19
   507.2786  1.968122E-19
   507.5126  1.895243E-19
   507.7467  1.868485E-19
   507.9807  1.915952E-19
   508.2147  1.981523E-19
   508.4488  2.099921E-19
   508.6828  2.219525E-19
   508.9168  2.299210E-19
   509.1509  2.440880E-19
   509.3849  2.486791E-19
   509.6189  2.548522E-19
   509.8529  2.672335E-19
   510.0869  2.629479E-19
   510.3209  2.512062E-19
   510.5549  2.431574E-19
   510.7889  2.395420E-19
   511.0229  2.379470E-19
   511.2569  2.396969E-19
   511.4909  2.366231E-19
   511.7249  2.223162E-19
   511.9588  2.207618E-19
   512.1928  2.312489E-19
   512.4268  2.405409E-19
   512.6608  2.398685E-19
   512.8947  2.224745E-19
   513.1287  2.048957E-19
   513.3627  1.927549E-19
   513.5967  1.852298E-19
   513.8306  1.790530E-19
   514.0646  1.712218E-19
   514.2985  1.698654E-19
   514.5325  1.703756E-19
   514.7665  1.645215E-19
   515.0004  1.573122E-19
   515.2344  1.508930E-19
   515.4683  1.501501E-19
   515.7023  1.527437E-19
   515.9362  1.491424E-19
   516.1702  1.453503E-19
   516.4042  1.467034E-19
   516.6381  1.429903E-19
   516.8721  1.327374E-19
   517.1060  1.275923E-19
   517.3400  1.304522E-19
   517.5739  1.319000E-19
   517.8079  1.345504E-19
   518.0418  1.470125E-19
   518.2758  1.665769E-19
   518.5098  1.879521E-19
   518.7437  1.932105E-19
   518.9777  1.810907E-19
   519.2117  1.782729E-19
   519.4456  1.834500E-19
   519.6796  1.820007E-19
   519.9136  1.837938E-19
   520.1475  1.855360E-19
   520.3815  1.762514E-19
   520.6155  1.651848E-19
   520.8494  1.611858E-19
   521.0834  1.553151E-19
   521.3174  1.454510E-19
   521.5514  1.430806E-19
   521.7854  1.435240E-19
   522.0194  1.416671E-19
   522.2534  1.406811E-19
   522.4874  1.394302E-19
   522.7214  1.446686E-19
   522.9554  1.506924E-19
   523.1894  1.531624E-19
   523.4234  1.463810E-19
   523.6574  1.384940E-19
   523.8914  1.420408E-19
   524.1254  1.490147E-19
   524.3595  1.578209E-19
   524.5935  1.683800E-19
   524.8275  1.914022E-19
   525.0616  2.144278E-19
   525.2956  2.265465E-19
   525.5297  2.267675E-19
   525.7637  2.157333E-19
   525.9978  2.080769E-19
   526.2319  2.083440E-19
   526.4659  2.108523E-19
   526.7000  2.090972E-19
   526.9341  1.924034E-19
   527.1682  1.702697E-19
   527.4023  1.642360E-19
   527.6364  1.708987E-19
   527.8705  1.767748E-19
   528.1046  1.771625E-19
   528.3387  1.716128E-19
   528.5728  1.624617E-19
   528.8070  1.543033E-19
   529.0411  1.494987E-19
   529.2753  1.484839E-19
   529.5094  1.436609E-19
   529.7436  1.384413E-19
   529.9777  1.422064E-19
   530.2119  1.518101E-19
   530.4461  1.585601E-19
   530.6803  1.551454E-19
   530.9145  1.474931E-19
   531.1487  1.487060E-19
   531.3829  1.516227E-19
   531.6171  1.527267E-19
   531.8514  1.541465E-19
   532.0856  1.554439E-19
   532.3199  1.579732E-19
   532.5541  1.614370E-19
   532.7884  1.586184E-19
   533.0227  1.520886E-19
   533.2570  1.487713E-19
   533.4913  1.405354E-19
   533.7256  1.282662E-19
   533.9599  1.250223E-19
   534.1942  1.263554E-19
   534.4285  1.235557E-19
   534.6629  1.168783E-19
   534.8972  1.092584E-19
   535.1316  9.787638E-20
   535.3660  8.629332E-20
   535.6004  8.196345E-20
   535.8348  8.297860E-20
   536.0692  8.577873E-20
   536.3036  9.085631E-20
   536.5380  9.192457E-20
   536.7725  8.666440E-20
   537.0069  8.275211E-20
   537.2414  8.429622E-20
   537.4758  8.438217E-20
   537.7103  8.436668E-20
   537.9448  9.377190E-20
   538.1793  1.088722E-19
   538.4139  1.213557E-19
   538.6484  1.270692E-19
   538.8829  1.225483E-19
   539.1175  1.238552E-19
   539.3521  1.278767E-19
   539.5866  1.189923E-19
   539.8212  1.065195E-19
   540.0558  9.926114E-20
   540.2905  9.035206E-20
   540.5251  8.197083E-20
   540.7598  7.897408E-20
   540.9944  8.273366E-20
   541.2291  9.129453E-20
   541.4638  1.016522E-19
   541.6985  1.168661E-19
   541.9332  1.288380E-19
   542.1679  1.351041E-19
   542.4027  1.410319E-19
   542.6374  1.421020E-19
   542.8722  1.439737E-19
   543.1070  1.488137E-19
   543.3418  1.474891E-19
   543.5766  1.437664E-19
   543.8114  1.371668E-19
   544.0463  1.292297E-19
   544.2811  1.231056E-19
   544.5160  1.208710E-19
   544.7509  1.264454E-19
   544.9858  1.382266E-19
   545.2207  1.519123E-19
   545.4557  1.497724E-19
   545.6906  1.353224E-19
   545.9256  1.223151E-19
   546.1606  1.166123E-19
   546.3956  1.125104E-19
   546.6306  1.050012E-19
   546.8656  1.021926E-19
   547.1007  1.080787E-19
   547.3358  1.219230E-19
   547.5708  1.314503E-19
   547.8059  1.342955E-19
   548.0411  1.341837E-19
   548.2762  1.305248E-19
   548.5113  1.264978E-19
   548.7465  1.264314E-19
   548.9817  1.290788E-19
   549.2169  1.329823E-19
   549.4521  1.332018E-19
   549.6874  1.238917E-19
   549.9226  1.138649E-19
   550.1579  1.079969E-19
   550.3932  1.044501E-19
   550.6285  1.015408E-19
   550.8638  9.861893E-20
   551.0992  9.363394E-20
   551.3346  8.807425E-20
   551.5699  8.803884E-20
   551.8053  8.989576E-20
   552.0408  9.066892E-20
   552.2762  9.527692E-20
   552.5117  1.003375E-19
   552.7472  1.021100E-19
   552.9827  1.095720E-19
   553.2182  1.179716E-19
   553.4537  1.117948E-19
   553.6893  1.004902E-19
   553.9249  9.699588E-20
   554.1605  9.723011E-20
   554.3961  9.543553E-20
   554.6317  8.961652E-20
   554.8674  8.070190E-20
   555.1031  7.479140E-20
   555.3388  7.284042E-20
   555.5745  6.936450E-20
   555.8102  6.422717E-20
   556.0460  6.044140E-20
   556.2818  6.138203E-20
   556.5176  6.469749E-20
   556.7534  6.616635E-20
   556.9893  6.498152E-20
   557.2251  6.368603E-20
   557.4610  6.199584E-20
   557.6969  6.151003E-20
   557.9329  6.544520E-20
   558.1688  6.914797E-20
   558.4048  6.696976E-20
   558.6408  6.235660E-20
   558.8768  5.863354E-20
   559.1129  5.418600E-20
   559.3489  5.017854E-20
   559.5850  5.061381E-20
   559.8211  5.173335E-20
   560.0573  5.435753E-20
   560.2934  5.694519E-20
   560.5296  5.904114E-20
   560.7658  6.132190E-20
   561.0020  6.359565E-20
   561.2383  6.561267E-20
   561.4746  6.790597E-20
   561.7109  7.058105E-20
   561.9472  7.196028E-20
   562.1835  7.152869E-20
   562.4199  7.210894E-20
   562.6563  7.760076E-20
   562.8927  8.454448E-20
   563.1291  8.814249E-20
   563.3656  9.500210E-20
   563.6021  1.099534E-19
   563.8386  1.177617E-19
   564.0752  1.099349E-19
   564.3117  1.113688E-19
   564.5483  1.227928E-19
   564.7849  1.207707E-19
   565.0215  1.089345E-19
   565.2582  1.000432E-19
   565.4949  9.675574E-20
   565.7316  9.055678E-20
   565.9683  7.619645E-20
   566.2051  6.326440E-20
   566.4419  5.719972E-20
   566.6787  5.681535E-20
   566.9155  5.684228E-20
   567.1524  5.777184E-20
   567.3893  6.495865E-20
   567.6262  7.261651E-20
   567.8632  7.621047E-20
   568.1001  8.172147E-20
   568.3371  8.596944E-20
   568.5742  8.322390E-20
   568.8112  7.515991E-20
   569.0483  7.278545E-20
   569.2854  7.333213E-20
   569.5225  7.211004E-20
   569.7597  7.179170E-20
   569.9968  7.699506E-20
   570.2341  8.416306E-20
   570.4713  9.123441E-20
   570.7086  1.010904E-19
   570.9458  1.054173E-19
   571.1832  1.011472E-19
   571.4205  9.744258E-20
   571.6579  9.660229E-20
   571.8953  9.677935E-20
   572.1327  9.755251E-20
   572.3702  9.462105E-20
   572.6077  8.449209E-20
   572.8452  7.612562E-20
   573.0827  7.280722E-20
   573.3203  7.097538E-20
   573.5579  6.598929E-20
   573.7955  6.154102E-20
   574.0332  5.727792E-20
   574.2709  5.321143E-20
   574.5086  5.073074E-20
   574.7463  4.882698E-20
   574.9841  4.855032E-20
   575.2219  4.774912E-20
   575.4597  4.546689E-20
   575.6976  4.225361E-20
   575.9355  3.833062E-20
   576.1734  3.540041E-20
   576.4113  3.391554E-20
   576.6493  3.313286E-20
   576.8873  3.323146E-20
   577.1253  3.455174E-20
   577.3634  3.507175E-20
   577.6015  3.537400E-20
   577.8396  3.789313E-20
   578.0778  3.998392E-20
   578.3160  4.183826E-20
   578.5542  4.690808E-20
   578.7924  5.380311E-20
   579.0307  5.831962E-20
   579.2690  5.880064E-20
   579.5073  5.696327E-20
   579.7457  5.602891E-20
   579.9841  5.607760E-20
   580.2225  5.504474E-20
   580.4610  5.367732E-20
   580.6995  5.090780E-20
   580.9380  4.586417E-20
   581.1766  4.092418E-20
   581.4151  3.785329E-20
   581.6538  3.744458E-20
   581.8924  3.774115E-20
   582.1311  3.659756E-20
   582.3698  3.452718E-20
   582.6085  3.345825E-20
   582.8473  3.471777E-20
   583.0861  3.730809E-20
   583.3249  3.830147E-20
   583.5638  3.741617E-20
   583.8027  3.779132E-20
   584.0416  3.999535E-20
   584.2806  4.248489E-20
   584.5196  4.611832E-20
   584.7586  5.106347E-20
   584.9977  5.521738E-20
   585.2368  5.767003E-20
   585.4759  6.058489E-20
   585.7151  6.082872E-20
   585.9543  5.662316E-20
   586.1935  5.383446E-20
   586.4327  5.320184E-20
   586.6720  5.279608E-20
   586.9114  5.219481E-20
   587.1507  5.030469E-20
   587.3901  4.737324E-20
   587.6295  4.471844E-20
   587.8690  4.250518E-20
   588.1085  4.081758E-20
   588.3480  4.003261E-20
   588.5875  4.000605E-20
   588.8271  4.059625E-20
   589.0668  4.228238E-20
   589.3064  4.604528E-20
   589.5461  5.001807E-20
   589.7858  5.193475E-20
   590.0256  5.385032E-20
   590.2654  5.788656E-20
   590.5052  6.268637E-20
   590.7451  6.317145E-20
   590.9850  5.933772E-20
   591.2249  5.632991E-20
   591.4648  5.939785E-20
   591.7048  6.647362E-20
   591.9449  7.109785E-20
   592.1849  7.426133E-20
   592.4250  7.478365E-20
   592.6652  7.190237E-20
   592.9053  7.325762E-20
   593.1455  7.395553E-20
   593.3858  6.579046E-20
   593.6260  5.862210E-20
   593.8664  5.395103E-20
   594.1067  4.655507E-20
   594.3471  4.050846E-20
   594.5875  3.852907E-20
   594.8279  3.722067E-20
   595.0684  3.446104E-20
   595.3089  3.128136E-20
   595.5495  2.885807E-20
   595.7901  2.772850E-20
   596.0307  2.816698E-20
   596.2714  3.062170E-20
   596.5120  3.180786E-20
   596.7528  3.073764E-20
   596.9935  3.077519E-20
   597.2343  3.220783E-20
   597.4752  3.320645E-20
   597.7161  3.405133E-20
   597.9570  3.435878E-20
   598.1979  3.336179E-20
   598.4389  3.368625E-20
   598.6799  3.591393E-20
   598.8294  3.752573E-20
   599.0535  3.945642E-20
   599.2775  3.945495E-20
   599.5015  3.949700E-20
   599.7254  4.279180E-20
   599.9492  4.639129E-20
   600.1731  4.667385E-20
   600.3968  4.659417E-20
   600.6205  4.751083E-20
   600.8442  4.672844E-20
   601.0678  4.469298E-20
   601.2913  4.438497E-20
   601.5148  4.505079E-20
   601.7383  4.287295E-20
   601.9617  4.112005E-20
   602.1850  3.866888E-20
   602.4083  3.589054E-20
   602.6316  3.358632E-20
   602.8548  3.061971E-20
   603.0779  2.751333E-20
   603.3010  2.385501E-20
   603.5240  2.049333E-20
   603.7470  1.899326E-20
   603.9700  1.828698E-20
   604.1929  1.720886E-20
   604.4157  1.644677E-20
   604.6385  1.581289E-20
   604.8612  1.569581E-20
   605.0839  1.708079E-20
   605.3066  1.924724E-20
   605.5291  2.071813E-20
   605.7517  2.077327E-20
   605.9742  1.911783E-20
   606.1966  1.708806E-20
   606.4190  1.666142E-20
   606.6413  1.780386E-20
   606.8636  1.912067E-20
   607.0859  1.896541E-20
   607.3080  1.814681E-20
   607.5302  1.838908E-20
   607.7523  1.973607E-20
   607.9743  2.146816E-20
   608.1963  2.147185E-20
   608.4182  2.021299E-20
   608.6401  2.007090E-20
   608.8620  1.989598E-20
   609.0838  1.975842E-20
   609.3055  2.006924E-20
   609.5272  1.985621E-20
   609.7489  1.957967E-20
   609.9705  1.976226E-20
   610.1920  2.012070E-20
   610.4135  2.058555E-20
   610.6350  2.083111E-20
   610.8564  2.205980E-20
   611.0777  2.559308E-20
   611.2990  3.017850E-20
   611.5203  3.548710E-20
   611.7415  3.943355E-20
   611.9627  4.043026E-20
   612.1838  4.351590E-20
   612.4049  4.793614E-20
   612.6259  5.169904E-20
   612.8469  5.448332E-20
   613.0678  4.789667E-20
   613.2887  3.853239E-20
   613.5095  3.417117E-20
   613.7303  3.405538E-20
   613.9510  3.522826E-20
   614.1717  3.492486E-20
   614.3924  3.425115E-20
   614.6129  3.275325E-20
   614.8335  3.004622E-20
   615.0540  2.822272E-20
   615.2745  2.797222E-20
   615.4949  2.879669E-20
   615.7152  3.117701E-20
   615.9355  3.365862E-20
   616.1558  3.515615E-20
   616.3760  3.682925E-20
   616.5962  3.967074E-20
   616.8163  4.286631E-20
   617.0364  4.220123E-20
   617.2565  3.863420E-20
   617.4765  3.598652E-20
   617.6964  3.512726E-20
   617.9163  3.474883E-20
   618.1361  3.203560E-20
   618.3560  2.772252E-20
   618.5757  2.407276E-20
   618.7954  2.234362E-20
   619.0151  2.234339E-20
   619.2347  2.300774E-20
   619.4543  2.415055E-20
   619.6739  2.576759E-20
   619.8933  2.676219E-20
   620.1128  2.748272E-20
   620.3322  3.037253E-20
   620.5515  3.365180E-20
   620.7709  3.473338E-20
   620.9901  3.342700E-20
   621.2093  3.071894E-20
   621.4285  2.762890E-20
   621.6476  2.460682E-20
   621.8667  2.243639E-20
   622.0858  2.089482E-20
   622.3048  2.017702E-20
   622.5237  2.097844E-20
   622.7426  2.214243E-20
   622.9615  2.223240E-20
   623.1803  2.224697E-20
   623.3991  2.328196E-20
   623.6178  2.407523E-20
   623.8365  2.397139E-20
   624.0552  2.308660E-20
   624.2738  2.240437E-20
   624.4923  2.240632E-20
   624.7109  2.217504E-20
   624.9293  2.183896E-20
   625.1478  2.199536E-20
   625.3662  2.223502E-20
   625.5845  2.154382E-20
   625.8028  2.055516E-20
   626.0211  1.965163E-20
   626.2393  1.853641E-20
   626.4574  1.776329E-20
   626.6756  1.789339E-20
   626.8937  1.769722E-20
   627.1117  1.683892E-20
   627.3297  1.599482E-20
   627.5477  1.529824E-20
   627.7656  1.466015E-20
   627.9835  1.399175E-20
   628.2013  1.342556E-20
   628.4191  1.304780E-20
   628.6368  1.311431E-20
   628.8545  1.341741E-20
   629.0722  1.382923E-20
   629.2898  1.382937E-20
   629.5074  1.294367E-20
   629.7249  1.189008E-20
   629.9424  1.116779E-20
   630.1599  1.040248E-20
   630.3773  9.950903E-21
   630.5947  1.055785E-20
   630.8120  1.136373E-20
   631.0293  1.184080E-20
   631.2465  1.256896E-20
   631.4638  1.341874E-20
   631.6809  1.359525E-20
   631.8980  1.362944E-20
   632.1151  1.397405E-20
   632.3322  1.416343E-20
   632.5492  1.367031E-20
   632.7661  1.265860E-20
   632.9831  1.182110E-20
   633.2000  1.181066E-20
   633.4168  1.300940E-20
   633.6336  1.426251E-20
   633.8504  1.455174E-20
   634.0671  1.451434E-20
   634.2838  1.496802E-20
   634.5004  1.515519E-20
   634.7170  1.435196E-20
   634.9336  1.300873E-20
   635.1501  1.261267E-20
   635.3666  1.329008E-20
   635.5830  1.384586E-20
   635.7994  1.386405E-20
   636.0158  1.411850E-20
   636.2321  1.504559E-20
   636.4484  1.536880E-20
   636.6647  1.505153E-20
   636.8809  1.512066E-20
   637.0970  1.510030E-20
   637.3132  1.473511E-20
   637.5293  1.492589E-20
   637.7453  1.574395E-20
   637.9613  1.651630E-20
   638.1773  1.605004E-20
   638.3933  1.438693E-20
   638.6092  1.337101E-20
   638.8250  1.364571E-20
   639.0408  1.399983E-20
   639.2566  1.400721E-20
   639.4724  1.362937E-20
   639.6881  1.400466E-20
   639.9037  1.538304E-20
   640.1194  1.586557E-20
   640.3350  1.508916E-20
   640.5505  1.520841E-20
   640.7661  1.604941E-20
   640.9815  1.619357E-20
   641.1970  1.618077E-20
   641.4124  1.604093E-20
   641.6278  1.621648E-20
   641.8431  1.779091E-20
   642.0584  1.938763E-20
   642.2737  2.039200E-20
   642.4889  2.203192E-20
   642.7041  2.278284E-20
   642.9192  2.175161E-20
   643.1343  2.056718E-20
   643.3494  2.069762E-20
   643.5644  2.103134E-20
   643.7794  1.976289E-20
   643.9944  1.771249E-20
   644.2093  1.603034E-20
   644.4242  1.461677E-20
   644.6391  1.391148E-20
   644.8539  1.463817E-20
   645.0687  1.612028E-20
   645.2834  1.679333E-20
   645.4982  1.688706E-20
   645.7128  1.715645E-20
   645.9275  1.755417E-20
   646.1421  1.946812E-20
   646.3567  2.212959E-20
   646.5712  2.381595E-20
   646.7857  2.561864E-20
   647.0002  2.706268E-20
   647.2146  2.699525E-20
   647.4290  2.588128E-20
   647.6433  2.553244E-20
   647.8577  2.488974E-20
   648.0720  2.243303E-20
   648.2862  1.885637E-20
   648.5004  1.522616E-20
   648.7146  1.271120E-20
   648.9288  1.205493E-20
   649.1429  1.208260E-20
   649.3570  1.194718E-20
   649.5710  1.169078E-20
   649.7850  1.149509E-20
   649.9990  1.181347E-20
   650.2130  1.280124E-20
   650.4269  1.387080E-20
   650.6407  1.393808E-20
   650.8546  1.344950E-20
   651.0684  1.383513E-20
   651.2822  1.419242E-20
   651.4959  1.407689E-20
   651.7096  1.351959E-20
   651.9233  1.235369E-20
   652.1369  1.168052E-20
   652.3506  1.136123E-20
   652.5641  1.125248E-20
   652.7777  1.114540E-20
   652.9912  1.054044E-20
   653.2047  1.001907E-20
   653.4181  9.612865E-21
   653.6315  9.163648E-21
   653.8449  8.874966E-21
   654.0582  8.858588E-21
   654.2716  8.940257E-21
   654.4848  9.082237E-21
   654.6981  9.567678E-21
   654.9113  9.901178E-21
   655.1245  9.698444E-21
   655.3376  9.491062E-21
   655.5508  9.296333E-21
   655.7639  9.715007E-21
   655.9769  1.050278E-20
   656.1899  1.008776E-20
   656.4029  8.924912E-21
   656.6159  8.106856E-21
   656.8288  8.064472E-21
   657.0417  7.981512E-21
   657.2546  7.233174E-21
   657.4674  6.758136E-21
   657.6802  6.853822E-21
   657.8930  6.875475E-21
   658.1058  6.665585E-21
   658.3185  6.582071E-21
   658.5311  6.654850E-21
   658.7438  6.804503E-21
   658.9564  6.960206E-21
   659.1690  7.102075E-21
   659.3816  7.178949E-21
   659.5941  7.158181E-21
   659.8066  7.235608E-21
   660.0191  7.147410E-21
   660.2315  6.663076E-21
   660.4439  5.903192E-21
   660.6563  5.520853E-21
   660.8686  5.515615E-21
   661.0809  5.341874E-21
   661.2932  5.060606E-21
   661.5055  4.601540E-21
   661.7177  4.272725E-21
   661.9299  4.267450E-21
   662.1421  4.171026E-21
   662.3542  3.948778E-21
   662.5663  3.770021E-21
   662.7784  3.740732E-21
   662.9905  3.855784E-21
   663.2025  3.906542E-21
   663.4145  3.817679E-21
   663.6265  3.818454E-21
   663.8384  3.836677E-21
   664.0503  3.917682E-21
   664.2622  3.919489E-21
   664.4740  4.158410E-21
   664.6858  4.664028E-21
   664.8976  5.131726E-21
   665.1094  5.534058E-21
   665.3211  5.770729E-21
   665.5328  5.854206E-21
   665.7445  6.076711E-21
   665.9562  6.637735E-21
   666.1678  7.451106E-21
   666.3794  7.810169E-21
   666.5910  8.126738E-21
   666.8025  8.588054E-21
   667.0140  8.451128E-21
   667.2255  8.147727E-21
   667.4370  8.149129E-21
   667.6484  8.752794E-21
   667.8598  9.726995E-21
   668.0712  1.067541E-20
   668.2825  1.101740E-20
   668.4939  1.014810E-20
   668.7052  9.362952E-21
   668.9164  9.705084E-21
   669.1277  1.030672E-20
   669.3389  1.006337E-20
   669.5501  9.763219E-21
   669.7612  1.086992E-20
   669.9724  1.173058E-20
   670.1835  1.161553E-20
   670.3946  1.108162E-20
   670.6056  9.811209E-21
   670.8167  8.506201E-21
   671.0277  8.100917E-21
   671.2386  8.719964E-21
   671.4496  9.180284E-21
   671.6605  9.005991E-21
   671.8714  9.071171E-21
   672.0823  9.377707E-21
   672.2932  9.371178E-21
   672.5040  9.887677E-21
   672.7148  1.025928E-20
   672.9256  9.844666E-21
   673.1363  1.015806E-20
   673.3470  1.142829E-20
   673.5577  1.307366E-20
   673.7684  1.285348E-20
   673.9791  1.118531E-20
   674.1897  1.070710E-20
   674.4003  1.070404E-20
   674.6109  1.031546E-20
   674.8214  9.881960E-21
   675.0319  9.619431E-21
   675.2424  9.973662E-21
   675.4529  1.043114E-20
   675.6634  1.070514E-20
   675.8738  1.081311E-20
   676.0842  1.044586E-20
   676.2946  9.970047E-21
   676.5049  9.920397E-21
   676.7153  1.034914E-20
   676.9256  1.037223E-20
   677.1359  9.797561E-21
   677.3461  9.797561E-21
   677.5564  9.956141E-21
   677.7666  9.033435E-21
   677.9768  7.746575E-21
   678.1870  7.092005E-21
   678.3971  6.905243E-21
   678.6072  6.602322E-21
   678.8173  6.556693E-21
   679.0274  6.682332E-21
   679.2375  6.868725E-21
   679.4475  7.272865E-21
   679.6575  7.750411E-21
   679.8675  7.899179E-21
   680.0775  7.529270E-21
   680.2874  7.243760E-21
   680.4973  6.985252E-21
   680.7072  6.795318E-21
   680.9171  6.761345E-21
   681.1270  6.684250E-21
   681.3368  6.344737E-21
   681.5466  5.707393E-21
   681.7564  5.342722E-21
   681.9662  5.151977E-21
   682.1759  4.835703E-21
   682.3857  4.684390E-21
   682.5954  4.669155E-21
   682.8050  4.789520E-21
   683.0147  5.146554E-21
   683.2243  5.537341E-21
   683.4340  5.714734E-21
   683.6436  5.510524E-21
   683.8531  5.093436E-21
   684.0627  4.811615E-21
   684.2722  4.632969E-21
   684.4818  4.542889E-21
   684.6912  4.876648E-21
   684.9007  5.035412E-21
   685.1102  4.876427E-21
   685.3196  4.964957E-21
   685.5290  5.686957E-21
   685.7384  6.248792E-21
   685.9478  5.814920E-21
   686.1571  5.534353E-21
   686.3665  5.732735E-21
   686.5758  5.880875E-21
   686.7851  5.485256E-21
   686.9944  4.771777E-21
   687.2036  4.166341E-21
   687.4128  4.010860E-21
   687.6221  4.054940E-21
   687.8313  3.737560E-21
   688.0404  3.499487E-21
   688.2496  3.346444E-21
   688.4587  3.249353E-21
   688.6679  3.351343E-21
   688.8770  3.297875E-21
   689.0860  3.313080E-21
   689.2951  3.387220E-21
   689.5042  3.237530E-21
   689.7132  3.244974E-21
   689.9222  3.309085E-21
   690.1312  3.244557E-21
   690.3402  3.193829E-21
   690.5491  3.165124E-21
   690.7580  3.055733E-21
   690.9670  3.100640E-21
   691.1759  3.130180E-21
   691.3847  3.027009E-21
   691.5936  3.039005E-21
   691.8025  3.036548E-21
   692.0113  2.952175E-21
   692.2201  2.820542E-21
   692.4289  2.586350E-21
   692.6377  2.402325E-21
   692.8464  2.427811E-21
   693.0552  2.540392E-21
   693.2639  2.567025E-21
   693.4726  2.558777E-21
   693.6813  2.494522E-21
   693.8900  2.414247E-21
   694.0986  2.495175E-21
   694.3073  2.622382E-21
   694.5159  2.625082E-21
   694.7245  2.698647E-21
   694.9331  2.698370E-21
   695.1417  2.677138E-21
   695.3502  2.730783E-21
   695.5588  2.793629E-21
   695.7673  2.818882E-21
   695.9758  2.845408E-21
   696.1843  2.697858E-21
   696.3928  2.627738E-21
   696.6013  2.843748E-21
   696.8097  2.866843E-21
   697.0181  2.622799E-21
   697.2266  2.484847E-21
   697.4350  2.254332E-21
   697.6434  1.999299E-21
   697.8517  1.895745E-21
   698.0601  1.865312E-21
   698.2684  1.907353E-21
   698.4768  1.866054E-21
   698.6851  1.739777E-21
   698.8934  1.741946E-21
   699.1016  1.747379E-21
   699.3099  1.889138E-21
   699.5182  2.055140E-21
   699.7264  2.306639E-21
   699.9346  2.611751E-21
   700.1428  2.758659E-21
   700.3510  2.684375E-21
   700.5592  2.603215E-21
   700.7674  2.632781E-21
   700.9755  2.652921E-21
   701.1837  2.581344E-21
   701.3918  2.447424E-21
   701.5999  2.429194E-21
   701.8080  2.608472E-21
   702.0161  2.810959E-21
   702.2242  2.961589E-21
   702.4323  3.031672E-21
   702.6403  3.136455E-21
   702.8483  3.097826E-21
   703.0564  3.053247E-21
   703.2644  3.189838E-21
   703.4724  3.492125E-21
   703.6803  3.829557E-21
   703.8883  4.142548E-21
   704.0963  4.484681E-21
   704.3042  4.541340E-21
   704.5121  4.409688E-21
   704.7201  4.513711E-21
   704.9280  4.664876E-21
   705.1359  5.107158E-21
   705.3438  5.679248E-21
   705.5516  6.376976E-21
   705.7595  6.557652E-21
   705.9673  5.914185E-21
   706.1752  5.250872E-21
   706.3830  4.776978E-21
   706.5908  4.788118E-21
   706.7986  5.004279E-21
   707.0064  5.396726E-21
   707.2142  6.380776E-21
   707.4220  7.248187E-21
   707.6297  6.935307E-21
   707.8375  6.877135E-21
   708.0452  6.512944E-21
   708.2529  4.945554E-21
   708.4606  3.974636E-21
   708.6683  3.687053E-21
   708.8760  3.501889E-21
   709.0837  3.527002E-21
   709.2914  3.727379E-21
   709.4990  4.015618E-21
   709.7067  4.173903E-21
   709.9143  4.126797E-21
   710.1220  4.195777E-21
   710.3296  4.397995E-21
   710.5372  4.902875E-21
   710.7448  5.553904E-21
   710.9524  6.270888E-21
   711.1600  5.758962E-21
   711.3675  4.718326E-21
   711.5751  4.493054E-21
   711.7827  4.614636E-21
   711.9902  5.009185E-21
   712.1977  5.168687E-21
   712.4053  5.156293E-21
   712.6128  4.907670E-21
   712.8203  4.501132E-21
   713.0278  4.438239E-21
   713.2353  4.302862E-21
   713.4428  4.430198E-21
   713.6502  4.968867E-21
   713.8577  4.956546E-21
   714.0652  4.400872E-21
   714.2726  3.774300E-21
   714.4800  3.541274E-21
   714.6875  3.688101E-21
   714.8949  3.742761E-21
   715.1023  3.481102E-21
   715.3097  2.962242E-21
   715.5171  2.546497E-21
   715.7245  2.398777E-21
   715.9319  2.227895E-21
   716.1393  2.234295E-21
   716.3467  2.404955E-21
   716.5540  2.435624E-21
   716.7614  2.284503E-21
   716.9687  2.105462E-21
   717.1761  1.979332E-21
   717.3834  1.870052E-21
   717.5907  1.834043E-21
   717.7980  1.819896E-21
   718.0054  1.845544E-21
   718.2127  1.812231E-21
   718.4200  1.760271E-21
   718.6273  1.672280E-21
   718.8346  1.716098E-21
   719.0418  1.768885E-21
   719.2491  1.548681E-21
   719.4564  1.396711E-21
   719.6636  1.391812E-21
   719.8709  1.341642E-21
   720.0782  1.437077E-21
   720.2854  1.591544E-21
   720.4926  1.737877E-21
   720.6999  1.776915E-21
   720.9071  1.827912E-21
   721.1143  1.793813E-21
   721.3216  1.672652E-21
   721.5288  1.782640E-21
   721.7360  1.965624E-21
   721.9432  2.091160E-21
   722.1504  2.126344E-21
   722.3576  2.129815E-21
   722.5648  2.078622E-21
   722.7719  2.125551E-21
   722.9791  2.070367E-21
   723.1863  2.143696E-21
   723.3935  2.314647E-21
   723.6006  2.299228E-21
   723.8078  2.138365E-21
   724.0150  1.961168E-21
   724.2221  1.960844E-21
   724.4293  1.879278E-21
   724.6364  1.721248E-21
   724.8436  1.630114E-21
   725.0507  1.493106E-21
   725.2578  1.352487E-21
   725.4650  1.265635E-21
   725.6721  1.191351E-21
   725.8792  1.111950E-21
   726.0863  1.065900E-21
   726.2935  9.886755E-22
   726.5006  9.663364E-22
   726.7077  9.658089E-22
   726.9148  9.771408E-22
   727.1219  9.043727E-22
   727.3290  8.608416E-22
   727.5361  8.946233E-22
   727.7432  9.076188E-22
   727.9503  8.967295E-22
   728.1574  9.445690E-22
   728.3645  9.766207E-22
   728.5716  9.253506E-22
   728.7787  9.047268E-22
   728.9858  8.536781E-22
   729.1928  8.156248E-22
   729.3999  7.943665E-22
   729.6070  8.344227E-22
   729.8141  8.505574E-22
   730.0212  8.524645E-22
   730.2282  8.382222E-22
   730.4353  8.150457E-22
   730.6424  8.280006E-22
   730.8495  8.127882E-22
   731.0565  8.057795E-22
   731.2636  8.335042E-22
   731.4707  8.467727E-22
   731.6777  8.449800E-22
   731.8848  8.903996E-22
   732.0919  9.064716E-22
   732.2989  8.835127E-22
   732.5060  8.502180E-22
   732.7131  8.264661E-22
   732.9201  8.155031E-22
   733.1272  8.570938E-22
   733.3343  9.127572E-22
   733.5413  9.186740E-22
   733.7484  1.014335E-21
   733.9555  1.101216E-21
   734.1625  1.179775E-21
   734.3696  1.327134E-21
   734.5767  1.447671E-21
   734.7837  1.439918E-21
   734.9908  1.497931E-21
   735.1979  1.572270E-21
   735.4049  1.493976E-21
   735.6120  1.399385E-21
   735.8191  1.374398E-21
   736.0262  1.328181E-21
   736.2332  1.268910E-21
   736.4403  1.212753E-21
   736.6474  1.190056E-21
   736.8545  1.235745E-21
   737.0615  1.307517E-21
   737.2686  1.335721E-21
   737.4757  1.283946E-21
   737.6828  1.206489E-21
   737.8899  1.120851E-21
   738.0970  1.108398E-21
   738.3040  1.130099E-21
   738.5111  1.222299E-21
   738.7182  1.368713E-21
   738.9253  1.535253E-21
   739.1324  1.588349E-21
   739.3395  1.497639E-21
   739.5466  1.295145E-21
   739.7537  1.176706E-21
   739.9609  1.209138E-21
   740.1680  1.329413E-21
   740.3751  1.468568E-21
   740.5822  1.413974E-21
   740.7893  1.340037E-21
   740.9964  1.347721E-21
   741.2036  1.268239E-21
   741.4107  1.163541E-21
   741.6178  1.100109E-21
   741.8250  1.058729E-21
   742.0321  1.015618E-21
   742.2393  1.022505E-21
   742.4464  1.130571E-21
   742.6536  1.260164E-21
   742.8607  1.380241E-21
   743.0679  1.535139E-21
   743.2751  1.643139E-21
   743.4822  1.720473E-21
   743.6894  1.819258E-21
   743.8966  1.905066E-21
   744.1038  2.003611E-21
   744.3110  2.127657E-21
   744.5182  2.269017E-21
   744.7254  2.576295E-21
   744.9326  2.914365E-21
   745.1398  3.114912E-21
   745.3470  3.112736E-21
   745.5542  3.147683E-21
   745.7614  3.092064E-21
   745.9687  3.243366E-21
   746.1759  3.569419E-21
   746.3831  3.586088E-21
   746.5904  3.595867E-21
   746.7976  3.236114E-21
   747.0049  2.504397E-21
   747.2122  1.998477E-21
   747.4194  1.668989E-21
   747.6267  1.522398E-21
   747.8340  1.435015E-21
   748.0413  1.269947E-21
   748.2486  1.147167E-21
   748.4559  1.093506E-21
   748.6632  1.007721E-21
   748.8705  9.786273E-22
   749.0778  1.006330E-21
   749.2852  1.054796E-21
   749.4925  1.123083E-21
   749.6998  1.190126E-21
   749.9072  1.240876E-21
   750.1145  1.237866E-21
   750.3219  1.232134E-21
   750.5293  1.242466E-21
   750.7367  1.291209E-21
   750.9441  1.397847E-21
   751.1514  1.505965E-21
   751.3589  1.525416E-21
   751.5663  1.479291E-21
   751.7737  1.446188E-21
   751.9811  1.503722E-21
   752.1885  1.492265E-21
   752.3960  1.469420E-21
   752.6034  1.536633E-21
   752.8109  1.541111E-21
   753.0184  1.457587E-21
   753.2259  1.385704E-21
   753.4333  1.376120E-21
   753.6408  1.426206E-21
   753.8483  1.519975E-21
   754.0559  1.618214E-21
   754.2634  1.655765E-21
   754.4709  1.528953E-21
   754.6785  1.414056E-21
   754.8860  1.343412E-21
   755.0936  1.366069E-21
   755.3011  1.457941E-21
   755.5087  1.507348E-21
   755.7163  1.553085E-21
   755.9239  1.590924E-21
   756.1315  1.392908E-21
   756.3391  1.203118E-21
   756.5468  1.157038E-21
   756.7544  1.104333E-21
   756.9620  1.060429E-21
   757.1697  1.044446E-21
   757.3774  1.060422E-21
   757.5851  1.084266E-21
   757.7928  1.026762E-21
   758.0005  8.440615E-22
   758.2082  7.521303E-22
   758.4159  6.883295E-22
   758.6236  6.233926E-22
   758.8314  6.020347E-22
   759.0391  5.756195E-22
   759.2469  5.684928E-22
   759.4547  5.527566E-22
   759.6625  5.242720E-22
   759.8703  4.882329E-22
   760.0781  4.521273E-22
   760.2859  4.815341E-22
   760.4938  4.660413E-22
   760.7016  4.169071E-22
   760.9095  4.012889E-22
   761.1174  3.888172E-22
   761.3252  3.928379E-22
   761.5331  3.950069E-22
   761.7411  4.157451E-22
   761.9490  4.350742E-22
   762.1569  4.221266E-22
   762.3649  4.384678E-22
   762.5728  5.034010E-22
   762.7808  5.173925E-22
   762.9888  5.202365E-22
   763.1968  5.535460E-22
   763.4048  5.427158E-22
   763.6128  5.516647E-22
   763.8209  5.850000E-22
   764.0289  6.084089E-22
   764.2370  6.463551E-22
   764.4451  6.703874E-22
   764.6532  7.108604E-22
   764.8613  7.517909E-22
   765.0694  7.819465E-22
   765.2776  7.596037E-22
   765.4857  7.175887E-22
   765.6939  6.692402E-22
   765.9021  6.948955E-22
   766.1103  7.269914E-22
   766.3185  6.441013E-22
   766.5267  6.214634E-22
   766.7349  6.069149E-22
   766.9432  6.208216E-22
   767.1515  6.078002E-22
   767.3597  5.705659E-22
   767.5680  5.363970E-22
   767.7764  4.892768E-22
   767.9847  4.862815E-22
   768.1930  4.394269E-22
   768.4014  4.111194E-22
   768.6098  4.005659E-22
   768.8182  3.981829E-22
   769.0266  4.135134E-22
   769.2350  3.953131E-22
   769.4434  3.417007E-22
   769.6519  2.779361E-22
   769.8604  2.383701E-22
   770.0688  2.388124E-22
   770.2773  2.374309E-22
   770.4859  2.517986E-22
   770.6944  2.425771E-22
   770.9030  2.410562E-22
   771.1115  2.314179E-22
   771.3201  2.300401E-22
   771.5287  2.231230E-22
   771.7373  2.317986E-22
   771.9460  2.155326E-22
   772.1546  2.219241E-22
   772.3633  2.235239E-22
   772.5720  2.246036E-22
   772.7807  2.131833E-22
   772.9894  2.642113E-22
   773.1982  2.636853E-22
   773.4069  2.430596E-22
   773.6157  2.202900E-22
   773.8245  2.249725E-22
   774.0333  2.288380E-22
   774.2421  2.716589E-22
   774.4510  2.822401E-22
   774.6598  2.798561E-22
   774.8687  2.661210E-22
   775.0776  2.627329E-22
   775.2866  2.683494E-22
   775.4955  3.055844E-22
   775.7045  3.127428E-22
   775.9134  3.339834E-22
   776.1224  3.324257E-22
   776.3315  3.705947E-22
   776.5405  3.610290E-22
   776.7495  3.905915E-22
   777.2519  4.021815E-22
   777.5526  3.570127E-22
   777.8532  3.789866E-22
   778.1538  4.304227E-22
   778.4543  4.156123E-22
   778.7547  3.918346E-22
   779.0551  3.824172E-22
   779.3554  4.347717E-22
   779.6555  4.189543E-22
   779.9557  3.928232E-22
   780.2557  4.312932E-22
   780.5556  4.228238E-22
   780.8555  3.842431E-22
   781.1553  3.679849E-22
   781.4550  3.740584E-22
   781.7547  3.761094E-22
   782.0543  4.002080E-22
   782.3538  4.232517E-22
   782.6532  4.421603E-22
   782.9525  4.313448E-22
   783.2518  4.334769E-22
   783.5510  4.157488E-22
   783.8501  4.513896E-22
   784.1491  4.533409E-22
   784.4481  4.273241E-22
   784.7470  4.697374E-22
   785.0458  5.454602E-22
   785.3445  6.157606E-22
   785.6432  5.945797E-22
   785.9417  4.928143E-22
   786.2402  4.514670E-22
   786.5387  5.188311E-22
   786.8370  5.440585E-22
   787.1353  4.684205E-22
   787.4335  4.450855E-22
   787.7317  4.980818E-22
   788.0297  5.712262E-22
   788.3277  6.514825E-22
   788.6256  7.803234E-22
   788.9235  8.540506E-22
   789.2212  9.314186E-22
   789.5189  9.901879E-22
   789.8165  1.010764E-21
   790.1141  1.088180E-21
   790.4116  1.237423E-21
   790.7089  1.324035E-21
   791.0063  1.211012E-21
   791.3035  1.065531E-21
   791.6007  8.947745E-22
   791.8978  7.403889E-22
   792.1948  6.762119E-22
   792.4918  6.259821E-22
   792.7887  6.196522E-22
   793.0855  5.306130E-22
   793.3822  4.595196E-22
   793.6789  3.610711E-22
   793.9755  3.680948E-22
   794.2720  4.078991E-22
   794.5685  3.635197E-22
   794.8649  2.499185E-22
   795.1612  2.004806E-22
   795.4574  2.239895E-22
   795.7536  2.177337E-22
   796.0497  2.366109E-22
   796.3457  2.254395E-22
   796.6417  2.025810E-22
   796.9376  2.085347E-22
   797.2334  2.101349E-22
   797.5292  2.337344E-22
   797.8248  2.599006E-22
   798.1204  2.883030E-22
   798.4160  2.888504E-22
   798.7114  2.731470E-22
   799.0068  2.719850E-22
   799.3022  2.701668E-22
   799.5974  3.033309E-22
   799.8926  3.027426E-22
   800.1877  2.900072E-22
   800.4828  2.967624E-22
   800.7778  3.384487E-22
   801.0727  3.484891E-22
   801.3675  3.397611E-22
   801.6623  3.588320E-22
   801.9570  3.799863E-22
   802.2516  3.847558E-22
   802.5462  3.592687E-22
   802.8407  3.322250E-22
   803.1351  3.267055E-22
   803.4295  3.233779E-22
   803.7238  3.024298E-22
   804.0180  2.849015E-22
   804.3122  2.520882E-22
   804.6063  1.896958E-22
   804.9003  1.345069E-22
   805.1943  1.035058E-22
   805.4882  6.335883E-23
   805.7820  4.457126E-23
   806.0758  5.587324E-23
   806.3694  3.990867E-23
   806.6631  5.174736E-23
   806.9566  7.111482E-23
   807.2501  6.727150E-23
   807.5436  4.487705E-23
   807.8369  3.548153E-23
   808.1302  2.834917E-23
   808.4234  3.987510E-23
   808.7166  6.187522E-23
   809.0097  6.525633E-23
   809.3027  8.697057E-23
   809.5957  8.684700E-23
   809.8886  8.076608E-23
   810.1814  9.157451E-23
   810.4742  8.484732E-23
   810.7669  6.650756E-23
   811.0596  6.069186E-23
   811.3521  7.328860E-23
   811.6447  8.187345E-23
   811.9371  9.362841E-23
   812.2295  9.757501E-23
   812.5218  1.161494E-22
   812.8141  1.193409E-22
   813.1063  1.187083E-22
   813.3984  1.150335E-22
   813.6905  9.476713E-23
   813.9825  1.164463E-22
   814.2744  1.574447E-22
   814.5663  1.473308E-22
   814.8581  1.485946E-22
   815.1498  1.368440E-22
   815.4415  9.443071E-23
   815.7332  1.149668E-22
   816.0247  8.974415E-23
   816.3162  8.399596E-23
   816.6077  7.692940E-23
   816.8990  3.902447E-23
   817.1904  9.364870E-24
   817.4816  1.601419E-23
   817.7728  2.850624E-23
   818.0639  1.865951E-23
   818.3550  1.697732E-23
   818.6460  1.613887E-23
   818.9369 -2.477580E-24
   819.2278  6.535003E-24
   819.5186  2.647738E-23
   819.8094  3.609080E-23
   820.1001 -2.384490E-24
   820.3907 -9.442998E-24
   820.6813 -1.148181E-23
   820.9718  7.192229E-24
   821.2623  1.921238E-23
   821.5527 -8.908275E-24
   821.8430  2.130486E-24
   822.1333 -1.488248E-23
   822.4235 -1.968505E-23
   822.7137 -1.761293E-23
   823.0038  3.723358E-24
   823.2938  2.559976E-23
   823.5838  6.192170E-23
   823.8737  5.418084E-23
   824.1636  2.375018E-23
   824.4534  2.216807E-23
   824.7431  5.052196E-23
   825.0328  5.076210E-23
   825.3225  7.423846E-23
   825.6120  6.748471E-23
   825.9015  6.256133E-23
   826.1910  4.267929E-23
   826.4804  6.947074E-23
   826.7697  7.855283E-23
   827.0590  7.691539E-23
   827.3482  5.970623E-23
   827.6374  4.458564E-23
   827.9265  4.698112E-23
   828.2155  5.913078E-23
   828.5045  7.155931E-23
   828.7935  6.834935E-23
   829.0823  7.482939E-23
   829.3712  8.768730E-23
   829.6599  8.730662E-23
   829.9486  9.550820E-23
   830.2373  6.959468E-23
   830.5259  4.631493E-23
   830.8144  7.139000E-23
   831.1029  9.116690E-23
   831.3913  9.674025E-23
   831.6797  9.663106E-23
   831.9680  8.715058E-23
   832.2563  9.307915E-23
   832.5445  1.147097E-22
   832.8326  1.237740E-22
   833.1207  1.177182E-22
   833.4088  9.321601E-23
   833.6968  1.256513E-22
   833.9847  1.505275E-22
   834.2726  1.909725E-22
   834.5604  2.184689E-22
   834.8481  2.150774E-22
   835.1359  1.899658E-22
   835.4235  1.868861E-22
   835.7111  2.220990E-22
   835.9987  3.256110E-22
   836.2862  3.542804E-22
   836.5736  2.213376E-22
   836.8610  1.284127E-22
   837.1483  1.021173E-22
   837.4356  5.934436E-23
   837.7228  8.637447E-23
   838.0100  8.546593E-23
   838.2972  8.844607E-23
   838.5842  1.021450E-22
   838.8712  1.113304E-22
   839.1582  1.168296E-22
   839.4451  1.231908E-22
   839.7320  1.572189E-22
   840.0188  1.776583E-22
   840.3055  1.708289E-22
   840.5923  1.874863E-22
   840.8789  1.834865E-22
   841.1655  1.486304E-22
   841.4521  1.361133E-22
   841.7386  1.687942E-22
   842.0250  1.507241E-22
   842.3114  1.422831E-22
   842.5978  1.493050E-22
   842.8840  1.711181E-22
   843.1703  1.804097E-22
   843.4565  1.742008E-22
   843.7426  1.916295E-22
   844.0287  1.870270E-22
   844.3148  1.600626E-22
   844.6008  1.791154E-22
   844.8867  1.908460E-22
   845.1726  1.595329E-22
   845.4584  1.381189E-22
   845.7442  1.240732E-22
   846.0300  9.607664E-23
   846.3157  7.799435E-23
   846.6013  7.937505E-23
   846.8869  4.368780E-23
   847.1725  3.226726E-23
   847.4580  2.312176E-23
   847.7434  5.482969E-23
   848.0288  5.117081E-23
   848.3142  3.434122E-23
   848.5995  2.201978E-23
   848.8847  4.715375E-23
   849.1700  5.408493E-23
   849.4551  4.805012E-23
   849.7402  7.031804E-24
   850.0253  1.209352E-23
   850.3103  1.059415E-23
   850.5953  2.008978E-23
   850.8802  2.862214E-23
   851.1651  4.641121E-23
   851.4499  2.300003E-23
   851.7347  3.008193E-23
   852.0194  1.895800E-23
   852.3041  1.416748E-23
   852.5888  3.150914E-23
   852.8734  4.387113E-23
   853.1579  6.254104E-23
   853.4424  6.416594E-23
   853.7269  5.044708E-23
   854.0113  6.136174E-23
   854.2957  9.225840E-23
   854.5800  7.483493E-23
   854.8643  7.806407E-23
   855.1485  1.127506E-22
   855.4327  1.127767E-22
   855.7168  9.337057E-23
   856.0009  1.073635E-22
   856.2850  9.017389E-23
   856.5690  6.865442E-23
   856.8529  5.336931E-23
   857.1369  3.439693E-23
   857.4207  5.485846E-24
   857.7046  1.761385E-24
   857.9884 -4.357050E-24
   858.2721  9.647834E-24
   858.5558  5.380422E-24
   858.8394  2.880045E-23
   859.1231  1.750965E-23
   859.4066  1.042919E-24
   859.6901  2.490848E-23
   859.9736  4.521568E-23
   860.2571  1.786023E-23
   860.5405  4.726442E-23
   860.8238  1.789984E-23
   861.1071  1.679366E-23
   861.3904  5.484334E-23
   861.6736  3.577667E-23
   861.9568  1.482139E-23
   862.2399  3.806355E-23
   862.5230  1.457657E-23
   862.8061  2.373232E-23
   863.0891  2.194442E-23
   863.3721  3.647008E-23
   863.6550  2.138624E-23
   863.9379  1.564059E-23
   864.2207  3.489893E-24
   864.5036  1.461382E-23
   864.7863  3.152412E-23
   865.0690  1.993408E-23
   865.3517  1.898364E-23
   865.6344 -2.959590E-24
   865.9170  2.310973E-24
   866.1995  1.815603E-23
   866.4821  4.670483E-23
   866.7646  2.039499E-23
   867.0470  1.704907E-23
   867.3294  1.957059E-23
   867.6118 -1.567969E-23
   867.8941  2.115923E-24
   868.1764  3.653043E-23
   868.4586  5.739264E-23
   868.7408  4.399655E-23
   869.0230  1.254912E-23
   869.3051  2.177374E-23
   869.5872  3.505430E-23
   869.8693 -1.778652E-24
   870.1513  3.535287E-23
   870.4333  2.700259E-23
   870.7152 -2.885984E-24
   870.9971  1.928423E-23
   871.2790  2.163582E-24
   871.5608  1.190827E-23
   871.8426  5.742473E-24
   872.1243  4.676312E-24
   872.4060  5.201627E-24
   872.6877  9.294304E-25
   872.9693  3.557762E-23
   873.2509  3.810855E-23
   873.5325  3.861096E-23
   873.8140  5.938162E-23
   874.0955  4.337057E-23
   874.3770  2.236324E-23
   874.6584  1.774539E-23
   874.9398 -1.732458E-23
   875.2211  7.161132E-24
   875.5024  9.228939E-24
   875.7837  2.839956E-23
   876.0649  3.908497E-23
   876.3461  4.375678E-23
   876.6273  3.259950E-23
   876.9084  3.065088E-23
   877.1895  3.761979E-23
   877.4706  3.224280E-23
   877.7516  3.172047E-23
   878.0326  5.056549E-23
   878.3135  3.756003E-23
   878.5945  2.672438E-23
   878.8753  4.184674E-23
   879.1562  6.293610E-23
   879.4370  6.714498E-23
   879.7178  3.557032E-23
   879.9985  6.083388E-23
   880.2793  4.367747E-23
   880.5599  2.320841E-23
   880.8406  3.846341E-23
   881.1212  1.365678E-23
   881.4018  1.385553E-23
   881.6823  2.803555E-23
   881.9628  6.045763E-23
   882.2433  5.626351E-23
   882.5238  6.800741E-23
   882.8042  7.458557E-23
   883.0846  5.524504E-23
   883.3649  7.285222E-23
   883.6452  6.355028E-23
   883.9255  3.584082E-23
   884.2058  4.044317E-23
   884.4860  3.248069E-23
   884.7662  2.560068E-23
   885.0464  6.626226E-24
   885.3265  1.285768E-23
   885.6066  2.834710E-23
   885.8867  3.268066E-23
   886.1667  3.634123E-23
   886.4467  6.354585E-23
   886.7267  4.230304E-23
   887.0066  2.661177E-23
   887.2865  3.767291E-23
   887.5664  3.997617E-23
   887.8463  3.304824E-23
   888.1261  3.794846E-23
   888.4059  4.662257E-23
   888.6856  5.278538E-23
   888.9654  6.210134E-23
   889.2451  7.396586E-23
   889.5247  9.424628E-23
   889.8044  7.323401E-23
   890.0840  1.001538E-22
   890.3636  1.106358E-22
   890.6431  1.044782E-22
   890.9227  9.357566E-23
   891.2022  9.358931E-23
   891.4816  1.068113E-22
   891.7611  1.273695E-22
   892.0405  1.647252E-22
   892.3199  1.580430E-22
   892.5992  1.462091E-22
   892.8786  6.850354E-23
   893.1579  1.344250E-23
   893.4371  1.131630E-23
   893.7164  4.102931E-23
   893.9956  4.495968E-23
   894.2748  1.469096E-23
   894.5540  6.514567E-24
   894.8331  3.413713E-23
   895.1122  2.308893E-23
   895.3913  2.863276E-23
   895.6703  4.438313E-23
   895.9494  2.157215E-23
   896.2284  2.554228E-23
   896.5074  3.465875E-23
   896.7863  2.994699E-23
   897.0652  4.896235E-23
   897.3441  6.515489E-23
   897.6230  4.794868E-23
   897.9019  5.171859E-23
   898.1807  7.757051E-23
   898.4595  7.211963E-23
   898.7383  8.115008E-23
   899.0170  7.862771E-23
   899.2957  4.875062E-23
   899.5744  7.025017E-23
   899.8531  8.297602E-23
   900.1318  7.015389E-23
   900.4104  6.806532E-23
   900.6890  4.742414E-23
   900.9676  8.510222E-23
   901.2461  7.455643E-23
   901.5246  3.675124E-23
   901.8031  3.389020E-23
   902.0816  7.206172E-23
   902.3601  6.105557E-23
   902.6385  5.119221E-23
   902.9169  4.082754E-23
   903.1953  7.440002E-23
   903.4737  5.477620E-23
   903.7520  5.261164E-23
   904.0304  5.483965E-23
   904.3087  5.342538E-23
   904.5869  6.397080E-23
   904.8652  8.782710E-23
   905.1434  5.665968E-23
   905.4216  3.950770E-23
   905.6998  1.278793E-23
   905.9780  2.901909E-23
   906.2561  5.270607E-23
   906.5342  3.001999E-23
   906.8123  1.196216E-23
   907.0904  1.255351E-23
   907.3685  4.296738E-23
   907.6465  4.939984E-23
   907.9245  4.191756E-23
   908.2025  5.773864E-23
   908.4805  3.238921E-23
   908.7585  1.313592E-23
   909.0364  3.811445E-23
   909.3143  3.840218E-23
   909.5922  2.425904E-23
   909.8701  3.159554E-23
   910.1480  4.376084E-23
   910.4258  5.187942E-23
   910.7036  6.569640E-23
   910.9814  5.921341E-23
   911.2592  4.340192E-23
   911.5370  3.382410E-23
   911.8147  2.154872E-23
   912.0924  3.965193E-23
   912.3701  4.061359E-23
   912.6478  4.440563E-23
   912.9255  3.114639E-23
   913.2031  5.100740E-23
   913.4807  4.546689E-23
   913.7584  5.411776E-23
   914.0360  4.296185E-23
   914.3135  2.093108E-23
   914.5911  1.723067E-23
   914.8686 -8.975411E-24
   915.1462  1.970645E-23
   915.4237  3.525552E-23
   915.7012  5.342612E-23
   915.9786  3.393107E-23
   916.2561  6.204711E-23
   916.5335  7.557637E-23
   916.8110  5.530333E-23
   917.0884  2.543664E-23
   917.3658  2.390134E-23
   917.6431  1.719540E-23
   917.9205  6.504091E-24
   918.1978 -1.822652E-23
   918.4752  3.334522E-23
   918.7525  3.910157E-23
   919.0298  2.993430E-23
   919.3070  3.236752E-23
   919.5843  3.296329E-23
   919.8616  4.457900E-23
   920.1388  1.853191E-23
   920.4160 -1.109180E-25
   920.6932 -9.650933E-24
   920.9704  5.443979E-24
   921.2476 -1.518411E-23
   921.5248  2.726726E-24
   921.8019 -9.379883E-25
   922.0790  3.114543E-25
   922.3562  6.459199E-24
   922.6333  1.721075E-23
   922.9104 -8.477576E-25
   923.1874  1.637841E-23
   923.4645  1.371395E-23
   923.7416  3.826311E-23
   924.0186  7.450146E-24
   924.2956 -8.207928E-24
   924.5727 -1.304607E-23
   924.8497  2.560503E-23
   925.1266  3.518278E-23
   925.4036  2.406520E-23
   925.6806  1.548540E-23
   925.9575 -1.799217E-23
   926.2345 -7.967458E-24
   926.5114 -1.036939E-23
   926.7883  1.021583E-23
   927.0652  6.182210E-24
   927.3421 -3.286277E-24
   927.6190  3.138070E-23
   927.8959  1.103326E-23
   928.1728  1.738958E-23
   928.4496  4.787491E-23
   928.7264  4.226763E-23
   929.0033  1.777845E-23
   929.2801 -2.202103E-24
   929.5569  9.433481E-24
   929.8337  3.053922E-23
   930.1105  4.028160E-23
   1613.000  4.028160E-23
   2200.000  4.028160E-23
   2300.000  4.028160E-23
