#******** NO2 Absorption Cross Sections at 203K ******************
#
#Version 1.0
#Date: August 2000
#
#K. Bogumil, J. Orphal, and J. P. Burrows
#University of Bremen - Institute of Environmental Physics
#P. O. Box 33 04 40
#D-28334 Bremen, Germany
#e-mail: Konstanze.Bogumil@iup.physik.uni-bremen.de
#
#1. column title:	wavelength (vacuum)
#1. column unit:		nm
#2. column title:	absorption cross-section 
#2. column unit:		cm2/molec
#
#Wavelength range:	241 - 760 nm
#Spectral Resolution:	0.22 nm below 308.9 nm, 
#	                0.21 nm between 308.9 nm and 399.7 nm, 
#			0.52 nm between 399.7 nm and 603 nm, 
#			0.47 nm between 603 nm and 760 nm (FWHM)
#Number of data points in file:	3026
#
#Experimental:
#
#Light source:   Xenon lamp
#Cell:	        Multiple reflection quartz cell (White optics)
#	        optical pathlength 985 cm
#Temperature:    203K
#Gas mixture:    NO2, N2
#Condition:      Flow measurement
#Total pressure: 150 mbar
#Spectrometer:   SCIAMACHY PFM Satellite Spectrometer 
#		 (Eight channel grating spectrometer)
#
#Note: Spectral Regions are cut and concatenated at 308.9 nm, 
#      399.7 nm, 603 nm and 760 nm.
#      The data are scaled to the integrated absorption cross section
#      using the absorption cross section measured by Vandaele et al., 
#      J. Quant. Spectrosc. Radiat. Transfer 59 (3--5), 171--184 (1998)
#
   241.0084  8.080605E-20
   241.1361  7.391553E-20
   241.2636  5.897341E-20
   241.3911  6.825213E-20
   241.5185  6.599080E-20
   241.6459  7.204512E-20
   241.7732  7.318010E-20
   241.9005  9.369974E-20
   242.0277  1.198100E-19
   242.1548  1.735724E-19
   242.2818  2.168799E-19
   242.4088  2.168935E-19
   242.5358  1.930082E-19
   242.6626  1.417556E-19
   242.7894  1.138717E-19
   242.9162  1.087806E-19
   243.0429  9.799713E-20
   243.1695  8.958155E-20
   243.2960  8.629534E-20
   243.4225  8.496083E-20
   243.5489  6.470812E-20
   243.6753  6.660004E-20
   243.8016  5.129479E-20
   243.9278  5.662181E-20
   244.0540  4.849281E-20
   244.1801  3.955861E-20
   244.3062  2.891337E-20
   244.4322  3.797698E-20
   244.5581  4.474538E-20
   244.6839  5.401326E-20
   244.8097  6.716457E-20
   244.9355  7.588943E-20
   245.0611  7.162625E-20
   245.1867  5.085949E-20
   245.3123  4.827550E-20
   245.4377  2.827144E-20
   245.5632  2.598775E-20
   245.6885  2.879616E-20
   245.8138  3.190200E-20
   245.9390  4.227352E-20
   246.0642  5.908656E-20
   246.1893  4.841693E-20
   246.3143  4.822232E-20
   246.4393  4.296711E-20
   246.5642  2.327707E-20
   246.6890  2.736969E-20
   246.8138  1.764416E-20
   246.9385  1.384251E-20
   247.0632  1.176924E-20
   247.1878  1.196787E-20
   247.3123  1.122800E-20
   247.4367  1.219471E-20
   247.5611  8.870436E-21
   247.6855  1.483016E-20
   247.8098  1.772021E-20
   247.9340  1.040504E-20
   248.0581  1.533898E-20
   248.1822  1.090436E-20
   248.3062  7.663299E-21
   248.4302  1.614307E-20
   248.5541  1.020239E-20
   248.6779  1.154489E-20
   248.8017  1.755320E-20
   248.9254  1.379472E-20
   249.0490  2.420847E-20
   249.1726  5.122128E-20
   249.2961  6.931631E-20
   249.4196  6.151269E-20
   249.5430  4.252166E-20
   249.6663  3.103835E-20
   249.7896  1.993648E-20
   249.9128  2.047069E-20
   250.0359  1.351154E-20
   250.1590  1.828236E-20
   250.2820  8.943708E-21
   250.4050  8.732310E-21
   250.5279  5.205274E-21
   250.6507  6.954429E-21
   250.7735  1.072938E-20
   250.8962  4.527858E-21
   251.0189  3.745937E-21
   251.1414  5.319196E-21
   251.2640 -6.551079E-21
   251.3864  7.480983E-22
   251.5088  1.828101E-21
   251.6312  9.067301E-21
   251.7535  4.647081E-21
   251.8757  1.015056E-20
   251.9978  2.374235E-21
   252.1199  4.379366E-21
   252.2420  1.007862E-20
   252.3639  5.103225E-21
   252.4858  7.692313E-22
   252.6077  6.809867E-21
   252.7295 -3.899831E-21
   252.8512 -1.165029E-21
   252.9729  2.137008E-21
   253.0945 -2.248490E-23
   253.2160  2.195002E-21
   253.3375 -4.984477E-21
   253.4590  4.463834E-21
   253.5803 -2.594947E-21
   253.7016  5.237794E-22
   253.8229  3.494059E-21
   253.9441 -3.454747E-21
   254.0652  7.871562E-23
   254.1863  4.152438E-22
   254.3073  2.239073E-22
   254.4282  3.800002E-21
   254.5491  3.315266E-23
   254.6699 -1.021959E-21
   254.7907 -3.458101E-21
   254.9114  3.441231E-21
   255.0321 -3.372363E-21
   255.1527  8.081334E-22
   255.2732 -2.293629E-21
   255.3937 -5.589688E-21
   255.5141  3.914669E-21
   255.6345  1.219299E-21
   255.7548  3.748393E-21
   255.8750  2.632854E-21
   255.9952 -2.982613E-21
   256.1153  2.200286E-21
   256.2354  6.677010E-21
   256.3554 -7.447006E-22
   256.4754  4.409922E-21
   256.5953 -6.575554E-21
   256.7151 -4.186075E-23
   256.8349  2.920521E-21
   256.9546 -3.444364E-21
   257.0743  3.427274E-21
   257.1939 -2.366443E-21
   257.3135 -6.968504E-22
   257.4330 -6.453400E-22
   257.5524 -2.089159E-21
   257.6718 -1.893988E-21
   257.7911 -7.346397E-21
   257.9104  4.741389E-21
   258.0296 -4.049627E-21
   258.1488 -6.730668E-22
   258.2679 -1.701154E-21
   258.3869  3.826560E-21
   258.5059  6.521811E-21
   258.6249 -2.501181E-21
   258.7438 -4.095832E-21
   258.8626  1.131073E-21
   258.9814 -1.825797E-21
   259.1001  8.469728E-21
   259.2188  4.704533E-21
   259.3374 -1.118663E-21
   259.4559 -2.635055E-21
   259.5745  5.938618E-22
   259.6929  2.368340E-21
   259.8113 -1.274952E-21
   259.9296 -1.470531E-21
   260.0479 -4.387852E-21
   260.1662 -5.036373E-21
   260.2844 -1.955742E-21
   260.4025 -3.632845E-21
   260.5206 -3.600461E-23
   260.6386  4.653822E-22
   260.7566 -3.559353E-21
   260.8745 -2.572404E-21
   260.9924 -7.203834E-21
   261.1102  3.402410E-21
   261.2279 -1.798799E-21
   261.3457  1.151647E-21
   261.4633 -3.412708E-21
   261.5809 -3.240267E-21
   261.6985 -5.098483E-21
   261.8160 -2.913881E-21
   261.9334 -7.148262E-22
   262.0509 -2.835799E-21
   262.1682 -3.444466E-21
   262.2855 -4.697165E-21
   262.4028 -4.434955E-21
   262.5200 -7.742075E-21
   262.6371 -3.243485E-21
   262.7542 -4.559074E-21
   262.8713 -7.530220E-21
   262.9883 -3.669989E-21
   263.1052 -3.651155E-22
   263.2221  1.452068E-21
   263.3390  1.269263E-21
   263.4558 -1.763721E-21
   263.5726 -6.815880E-21
   263.6893 -2.965168E-22
   263.8059 -5.946443E-21
   263.9226  2.259263E-21
   264.0391  4.007012E-21
   264.1556  2.877872E-21
   264.2721 -2.456009E-21
   264.3885 -5.389554E-21
   264.5049 -5.197246E-21
   264.6212 -4.492780E-21
   264.7375  1.388709E-22
   264.8538  1.437093E-21
   264.9699 -5.382085E-21
   265.0861 -1.974848E-21
   265.2022  7.747766E-22
   265.3182  9.699138E-22
   265.4342  1.674224E-22
   265.5502 -3.253512E-21
   265.6661 -2.330366E-21
   265.7820  9.211134E-22
   265.8978 -6.059823E-21
   266.0136 -4.457262E-21
   266.1293 -6.736071E-21
   266.2450 -7.568584E-21
   266.3606 -7.423294E-21
   266.4762 -6.599266E-21
   266.5918 -1.947578E-21
   266.7073 -6.453553E-21
   266.8228 -3.675223E-21
   266.9382 -4.942031E-21
   267.0536 -3.915397E-21
   267.1689 -5.240216E-21
   267.2842 -1.504572E-21
   267.3994  1.396106E-21
   267.5146 -1.944309E-21
   267.6298 -4.960070E-21
   267.7449 -3.294349E-21
   267.8600 -3.808809E-22
   267.9750 -3.821275E-21
   268.0900 -4.717016E-21
   268.2050  1.731472E-21
   268.3199 -3.422583E-21
   268.4348 -3.213743E-21
   268.5496 -6.821791E-22
   268.6644 -8.055792E-22
   268.7792  1.525566E-21
   268.8939  1.186635E-21
   269.0085 -1.787553E-21
   269.1232  5.656845E-21
   269.2378  2.095968E-21
   269.3523 -3.239556E-23
   269.4668  2.724062E-21
   269.5813  1.257344E-21
   269.6957 -6.547133E-23
   269.8101  6.776280E-22
   269.9245  1.452566E-21
   270.0388  9.918547E-22
   270.1531  7.373159E-22
   270.2673 -4.433143E-21
   270.3815 -5.686181E-21
   270.4957 -7.293637E-22
   270.6098 -2.098153E-21
   270.7239 -1.172766E-21
   270.8379 -2.121035E-21
   270.9519  1.567241E-21
   271.0659 -1.055015E-22
   271.1799  3.628069E-21
   271.2938  3.246703E-22
   271.4076 -3.034476E-21
   271.5215 -3.652272E-21
   271.6353 -6.912543E-21
   271.7490 -7.984942E-21
   271.8628 -6.230689E-22
   271.9764 -3.655050E-21
   272.0901  1.766669E-22
   272.2037 -6.572878E-22
   272.3173  3.023924E-21
   272.4309  1.926305E-21
   272.5444  2.664849E-21
   272.6579  5.708522E-21
   272.7713  5.254376E-21
   272.8847  5.926745E-21
   272.9981  1.957842E-21
   273.1115  4.199727E-21
   273.2248  7.999051E-21
   273.3381  8.539934E-22
   273.4513  5.616263E-21
   273.5645  7.898984E-21
   273.6777  5.062592E-21
   273.7909  9.382559E-21
   273.9040  4.931598E-21
   274.0171 -1.742414E-21
   274.1301  3.598022E-21
   274.2431  1.111440E-20
   274.3561  7.948781E-21
   274.4691  1.049488E-20
   274.5820  7.491721E-21
   274.6949  1.032788E-20
   274.8078  1.313341E-20
   274.9207  8.144443E-21
   275.0335  5.360490E-21
   275.1462  3.915685E-21
   275.2590  4.837696E-21
   275.3717  7.358491E-21
   275.4844  3.494347E-21
   275.5971  6.468966E-21
   275.7097  7.172720E-21
   275.8223  8.395304E-21
   275.9349  6.419559E-21
   276.0474  4.868082E-21
   276.1600  6.162143E-21
   276.2725  6.196644E-21
   276.3849  6.584768E-21
   276.4974  6.276623E-21
   276.6098  5.442569E-21
   276.7222  4.164446E-21
   276.8345  8.483075E-21
   276.9468  1.045137E-20
   277.0591  1.124108E-20
   277.1714  9.277563E-21
   277.2837  1.145805E-20
   277.3959  6.085754E-21
   277.5081  5.477443E-21
   277.6203  8.359431E-21
   277.7324  1.234366E-20
   277.8445  1.249503E-20
   277.9566  9.249024E-21
   278.0687  8.755667E-21
   278.1807  8.804007E-21
   278.2928  8.898434E-21
   278.4048  1.402681E-20
   278.5167  1.283397E-20
   278.6287  1.348412E-20
   278.7406  1.141986E-20
   278.8525  1.201048E-20
   278.9644  1.100900E-20
   279.0762  1.533000E-20
   279.1881  2.128488E-20
   279.2999  1.834656E-20
   279.4117  2.011958E-20
   279.5234  2.078048E-20
   279.6352  2.047391E-20
   279.7469  2.166597E-20
   279.8586  1.947680E-20
   279.9703  1.887331E-20
   280.0819  2.178894E-20
   280.1935  1.982080E-20
   280.3052  1.764077E-20
   280.4167  1.992073E-20
   280.5283  2.162329E-20
   280.6399  1.877694E-20
   280.7514  1.853304E-20
   280.8629  2.057232E-20
   280.9744  2.174406E-20
   281.0858  2.559379E-20
   281.1973  2.431534E-20
   281.3087  2.657244E-20
   281.4201  2.713273E-20
   281.5315  2.663307E-20
   281.6429  2.191750E-20
   281.7542  2.377537E-20
   281.8656  2.578044E-20
   281.9769  2.614256E-20
   282.0882  2.750959E-20
   282.1994  2.138041E-20
   282.3107  1.865143E-20
   282.4219  1.672813E-20
   282.5331  1.665694E-20
   282.6443  2.253792E-20
   282.7555  2.191106E-20
   282.8667  2.297795E-20
   282.9778  2.122560E-20
   283.0890  2.200252E-20
   283.2001  2.509904E-20
   283.3112  2.401047E-20
   283.4223  2.629754E-20
   283.5333  3.020164E-20
   283.6444  2.766101E-20
   283.7554  2.685902E-20
   283.8664  2.916286E-20
   283.9774  3.189861E-20
   284.0884  3.162490E-20
   284.1994  3.444483E-20
   284.3104  3.250531E-20
   284.4213  3.039117E-20
   284.5322  3.063710E-20
   284.6431  3.245077E-20
   284.7540  3.301581E-20
   284.8649  3.175396E-20
   284.9758  3.415926E-20
   285.0866  3.209492E-20
   285.1975  3.732472E-20
   285.3083  3.296330E-20
   285.4191  3.624495E-20
   285.5299  3.573801E-20
   285.6407  3.805760E-20
   285.7515  4.156723E-20
   285.8622  4.497472E-20
   285.9730  4.323202E-20
   286.0837  4.152505E-20
   286.1944  4.495338E-20
   286.3051  4.656092E-20
   286.4158  4.308923E-20
   286.5265  4.257891E-20
   286.6372  3.968106E-20
   286.7478  3.992192E-20
   286.8585  4.066869E-20
   286.9691  4.345305E-20
   287.0797  3.465638E-20
   287.1903  3.868446E-20
   287.3009  3.847020E-20
   287.4115  3.839737E-20
   287.5221  3.293688E-20
   287.6327  3.915685E-20
   287.7432  3.188286E-20
   287.8538  3.197127E-20
   287.9643  3.380256E-20
   288.0748  3.024602E-20
   288.1853  2.919403E-20
   288.2958  3.157900E-20
   288.4063  2.437445E-20
   288.5168  2.690797E-20
   288.6273  2.854125E-20
   288.7377  2.518424E-20
   288.8482  2.395102E-20
   288.9586  2.241055E-20
   289.0691  2.501977E-20
   289.1795  2.339530E-20
   289.2899  1.968920E-20
   289.4003  2.499775E-20
   289.5107  2.358245E-20
   289.6211  3.011407E-20
   289.7315  3.522616E-20
   289.8419  3.786079E-20
   289.9522  3.816092E-20
   290.0626  4.263023E-20
   290.1729  4.661732E-20
   290.2833  4.794929E-20
   290.3936  4.813950E-20
   290.5039  4.635614E-20
   290.6142  5.445363E-20
   290.7245  5.719684E-20
   290.8348  5.870224E-20
   290.9451  6.834766E-20
   291.0554  6.910917E-20
   291.1657  7.093876E-20
   291.2760  7.719633E-20
   291.3862  7.621971E-20
   291.4965  7.153835E-20
   291.6067  7.325141E-20
   291.7170  7.450682E-20
   291.8272  7.733200E-20
   291.9374  7.765229E-20
   292.0476  7.522954E-20
   292.1579  7.500089E-20
   292.2681  7.937619E-20
   292.3783  8.217918E-20
   292.4885  7.747580E-20
   292.5987  7.721089E-20
   292.7088  8.475233E-20
   292.8190  7.997408E-20
   292.9292  8.117156E-20
   293.0393  7.778220E-20
   293.1495  6.991116E-20
   293.2597  6.596607E-20
   293.3698  6.894115E-20
   293.4800  7.186863E-20
   293.5901  7.095587E-20
   293.7002  7.137422E-20
   293.8103  6.710190E-20
   293.9205  6.388716E-20
   294.0306  6.765305E-20
   294.1407  6.596370E-20
   294.2508  6.695471E-20
   294.3609  7.421346E-20
   294.4710  7.655033E-20
   294.5811  7.727102E-20
   294.6912  7.993377E-20
   294.8013  8.473573E-20
   294.9113  8.225794E-20
   295.0214  8.493068E-20
   295.1315  7.694836E-20
   295.2415  7.943411E-20
   295.3516  7.463097E-20
   295.4616  7.639976E-20
   295.5717  7.705253E-20
   295.6817  7.759283E-20
   295.7918  7.039998E-20
   295.9018  7.667770E-20
   296.0118  7.725662E-20
   296.1219  8.324641E-20
   296.2319  8.085720E-20
   296.3419  8.528400E-20
   296.4519  9.417891E-20
   296.5619  9.055987E-20
   296.6719  9.814771E-20
   296.7819  9.956148E-20
   296.8919  1.018846E-19
   297.0019  1.042322E-19
   297.1119  1.034095E-19
   297.2219  1.120629E-19
   297.3319  1.163071E-19
   297.4419  1.166267E-19
   297.5518  1.173816E-19
   297.6618  1.171774E-19
   297.7718  1.140006E-19
   297.8817  1.087840E-19
   297.9917  1.027596E-19
   298.1016  1.024453E-19
   298.2116  1.011677E-19
   298.3215  1.004820E-19
   298.4315  9.029124E-20
   298.5414  9.687790E-20
   298.6513  9.472379E-20
   298.7613  9.329544E-20
   298.8712  9.830929E-20
   298.9811  9.684149E-20
   299.0910  9.973916E-20
   299.2010  9.741905E-20
   299.3109  9.980471E-20
   299.4208  9.838720E-20
   299.5307  9.901457E-20
   299.6406  1.025513E-19
   299.7505  1.061014E-19
   299.8604  1.104630E-19
   299.9703  1.044224E-19
   300.0801  1.031810E-19
   300.1900  9.777796E-20
   300.2999  9.824696E-20
   300.4098  1.023594E-19
   300.5196  1.026317E-19
   300.6295  1.009954E-19
   300.7393  9.731845E-20
   300.8492  9.309304E-20
   300.9591  9.823866E-20
   301.0689  9.256493E-20
   301.1787  9.614501E-20
   301.2886  9.274362E-20
   301.3984  9.830523E-20
   301.5082  1.070741E-19
   301.6181  1.058367E-19
   301.7279  1.083637E-19
   301.8377  1.109245E-19
   301.9475  1.142675E-19
   302.0573  1.201568E-19
   302.1671  1.247503E-19
   302.2769  1.259574E-19
   302.3867  1.196040E-19
   302.4965  1.236119E-19
   302.6063  1.294245E-19
   302.7160  1.273355E-19
   302.8258  1.239309E-19
   302.9356  1.261443E-19
   303.0453  1.317055E-19
   303.1551  1.416290E-19
   303.2648  1.392617E-19
   303.3746  1.433408E-19
   303.4843  1.437828E-19
   303.5940  1.376757E-19
   303.7038  1.409634E-19
   303.8135  1.394531E-19
   303.9232  1.381546E-19
   304.0329  1.342805E-19
   304.1426  1.293807E-19
   304.2523  1.329360E-19
   304.3620  1.311832E-19
   304.4717  1.318554E-19
   304.5814  1.347031E-19
   304.6910  1.344594E-19
   304.8007  1.364092E-19
   304.9104  1.356858E-19
   305.0200  1.440899E-19
   305.1296  1.440154E-19
   305.2393  1.427542E-19
   305.3489  1.436741E-19
   305.4585  1.413662E-19
   305.5681  1.333701E-19
   305.6777  1.330985E-19
   305.7873  1.248585E-19
   305.8969  1.271392E-19
   306.0065  1.337992E-19
   306.1161  1.278234E-19
   306.2257  1.291920E-19
   306.3352  1.350798E-19
   306.4448  1.346510E-19
   306.5543  1.394395E-19
   306.6638  1.422437E-19
   306.7734  1.421795E-19
   306.8829  1.493141E-19
   306.9924  1.473909E-19
   307.1019  1.464393E-19
   307.2114  1.476864E-19
   307.3208  1.527951E-19
   307.4303  1.528427E-19
   307.5398  1.449266E-19
   307.6492  1.453690E-19
   307.7586  1.481439E-19
   307.8681  1.451170E-19
   307.9775  1.423235E-19
   308.0869  1.440853E-19
   308.1963  1.465741E-19
   308.3056  1.430261E-19
   308.4150  1.426822E-19
   308.5244  1.546564E-19
   308.6337  1.555458E-19
   308.7431  1.619163E-19
   308.8524  1.676673E-19
   308.9541  1.901119E-19
   309.0693  1.706608E-19
   309.1845  1.822698E-19
   309.2998  1.772563E-19
   309.4150  1.856234E-19
   309.5301  1.784233E-19
   309.6453  1.879032E-19
   309.7604  1.728153E-19
   309.8756  1.787383E-19
   309.9907  1.730693E-19
   310.1057  1.757590E-19
   310.2208  1.652308E-19
   310.3359  1.673046E-19
   310.4509  1.655597E-19
   310.5659  1.686425E-19
   310.6809  1.657909E-19
   310.7958  1.814178E-19
   310.9108  1.780608E-19
   311.0257  1.819886E-19
   311.1406  1.809487E-19
   311.2555  1.868158E-19
   311.3704  1.882487E-19
   311.4852  1.898713E-19
   311.6001  1.818887E-19
   311.7149  1.920224E-19
   311.8297  1.843023E-19
   311.9444  1.853168E-19
   312.0592  1.809707E-19
   312.1739  1.921765E-19
   312.2886  1.950187E-19
   312.4033  1.937433E-19
   312.5180  1.983740E-19
   312.6326  2.054674E-19
   312.7472  1.986297E-19
   312.8619  1.991853E-19
   312.9764  1.974797E-19
   313.0910  1.950779E-19
   313.2055  1.892989E-19
   313.3201  1.911603E-19
   313.4346  1.845038E-19
   313.5491  1.851373E-19
   313.6635  1.814297E-19
   313.7780  1.872613E-19
   313.8924  1.773427E-19
   314.0068  1.829558E-19
   314.1211  1.819869E-19
   314.2355  1.850001E-19
   314.3498  1.857742E-19
   314.4641  1.905658E-19
   314.5784  1.898442E-19
   314.6927  2.023662E-19
   314.8069  2.069884E-19
   314.9212  2.076524E-19
   315.0354  2.087855E-19
   315.1496  2.132028E-19
   315.2637  2.139125E-19
   315.3779  2.086991E-19
   315.4920  2.033011E-19
   315.6061  2.041412E-19
   315.7202  1.951931E-19
   315.8342  2.007114E-19
   315.9482  1.952693E-19
   316.0622  1.964855E-19
   316.1762  1.945021E-19
   316.2902  1.996934E-19
   316.4041  1.900644E-19
   316.5181  1.957876E-19
   316.6320  1.979793E-19
   316.7458  2.049678E-19
   316.8597  2.053793E-19
   316.9735  2.051541E-19
   317.0873  2.102167E-19
   317.2011  2.197593E-19
   317.3149  2.145222E-19
   317.4286  2.286752E-19
   317.5424  2.331908E-19
   317.6561  2.426046E-19
   317.7697  2.384753E-19
   317.8834  2.404841E-19
   317.9970  2.362852E-19
   318.1106  2.406467E-19
   318.2242  2.320187E-19
   318.3378  2.356789E-19
   318.4513  2.313615E-19
   318.5649  2.311583E-19
   318.6784  2.198220E-19
   318.7918  2.248406E-19
   318.9053  2.181638E-19
   319.0187  2.292782E-19
   319.1321  2.157383E-19
   319.2455  2.154267E-19
   319.3589  2.139125E-19
   319.4722  2.229182E-19
   319.5855  2.196086E-19
   319.6988  2.283246E-19
   319.8121  2.371982E-19
   319.9253  2.480653E-19
   320.0386  2.495592E-19
   320.1518  2.538986E-19
   320.2650  2.569795E-19
   320.3781  2.587088E-19
   320.4912  2.550334E-19
   320.6044  2.558312E-19
   320.7174  2.469965E-19
   320.8305  2.493288E-19
   320.9436  2.419780E-19
   321.0566  2.422608E-19
   321.1696  2.388343E-19
   321.2825  2.431212E-19
   321.3955  2.317833E-19
   321.5084  2.376436E-19
   321.6213  2.335092E-19
   321.7342  2.391562E-19
   321.8471  2.322507E-19
   321.9599  2.391799E-19
   322.0727  2.393154E-19
   322.1855  2.499217E-19
   322.2983  2.505229E-19
   322.4110  2.570354E-19
   322.5237  2.593745E-19
   322.6364  2.608176E-19
   322.7491  2.625926E-19
   322.8618  2.749841E-19
   322.9744  2.669896E-19
   323.0870  2.710292E-19
   323.1996  2.554805E-19
   323.3121  2.704838E-19
   323.4247  2.635005E-19
   323.5372  2.681142E-19
   323.6497  2.583328E-19
   323.7621  2.599842E-19
   323.8746  2.589494E-19
   323.9870  2.635022E-19
   324.0994  2.611597E-19
   324.2118  2.578162E-19
   324.3241  2.640662E-19
   324.4365  2.676468E-19
   324.5488  2.706938E-19
   324.6610  2.689256E-19
   324.7733  2.674909E-19
   324.8855  2.832835E-19
   324.9978  2.790135E-19
   325.1099  2.892675E-19
   325.2221  2.976330E-19
   325.3343  2.979565E-19
   325.4464  2.972180E-19
   325.5585  3.063609E-19
   325.6705  2.953091E-19
   325.7826  3.039778E-19
   325.8946  2.922214E-19
   326.0066  2.976380E-19
   326.1186  2.911561E-19
   326.2306  2.933274E-19
   326.3425  2.953921E-19
   326.4544  3.122246E-19
   326.5663  3.119367E-19
   326.6782  3.085323E-19
   326.7900  3.009222E-19
   326.9018  3.038694E-19
   327.0136  2.943945E-19
   327.1254  2.860646E-19
   327.2372  2.830853E-19
   327.3489  3.010527E-19
   327.4606  2.983037E-19
   327.5723  3.099516E-19
   327.6840  3.053175E-19
   327.7956  3.066183E-19
   327.9072  3.082765E-19
   328.0188  3.157731E-19
   328.1304  3.167249E-19
   328.2419  3.152497E-19
   328.3534  3.009968E-19
   328.4649  3.027227E-19
   328.5764  2.993962E-19
   328.6879  3.037508E-19
   328.7993  3.055631E-19
   328.9107  3.084933E-19
   329.0221  3.109814E-19
   329.1335  3.239928E-19
   329.2448  3.107629E-19
   329.3561  3.267537E-19
   329.4674  3.282492E-19
   329.5787  3.357322E-19
   329.6900  3.462200E-19
   329.8012  3.539062E-19
   329.9124  3.491993E-19
   330.0236  3.553815E-19
   330.1348  3.456661E-19
   330.2459  3.480357E-19
   330.3570  3.337455E-19
   330.4681  3.289674E-19
   330.5792  3.229004E-19
   330.6902  3.275158E-19
   330.8013  3.314894E-19
   330.9123  3.370669E-19
   331.0232  3.400886E-19
   331.1342  3.406543E-19
   331.2451  3.414961E-19
   331.3561  3.410320E-19
   331.4670  3.379256E-19
   331.5778  3.347600E-19
   331.6887  3.323905E-19
   331.7995  3.350090E-19
   331.9103  3.304105E-19
   332.0211  3.323430E-19
   332.1319  3.344975E-19
   332.2426  3.402613E-19
   332.3533  3.505221E-19
   332.4640  3.684030E-19
   332.5747  3.810604E-19
   332.6853  3.941345E-19
   332.7960  4.064633E-19
   332.9066  4.215970E-19
   333.0172  4.287447E-19
   333.1277  4.317223E-19
   333.2383  4.216377E-19
   333.3488  4.152048E-19
   333.4593  4.005725E-19
   333.5698  3.938821E-19
   333.6802  3.777813E-19
   333.7907  3.748139E-19
   333.9011  3.663553E-19
   334.0115  3.592720E-19
   334.1219  3.423226E-19
   334.2322  3.445956E-19
   334.3425  3.373870E-19
   334.4529  3.363183E-19
   334.5631  3.484455E-19
   334.6734  3.575952E-19
   334.7836  3.667719E-19
   334.8939  3.805642E-19
   335.0041  3.910908E-19
   335.1143  4.090683E-19
   335.2244  4.118190E-19
   335.3346  4.007943E-19
   335.4447  3.879320E-19
   335.5548  3.796377E-19
   335.6648  3.719243E-19
   335.7749  3.679406E-19
   335.8849  3.693702E-19
   335.9949  3.731388E-19
   336.1049  3.833724E-19
   336.2149  3.889195E-19
   336.3249  3.952202E-19
   336.4348  3.956132E-19
   336.5447  3.980047E-19
   336.6546  4.031283E-19
   336.7645  4.070697E-19
   336.8743  4.027472E-19
   336.9841  3.901406E-19
   337.0940  4.023238E-19
   337.2037  3.891346E-19
   337.3135  3.822969E-19
   337.4233  3.722072E-19
   337.5330  3.702577E-19
   337.6427  3.624021E-19
   337.7524  3.653407E-19
   337.8620  3.586284E-19
   337.9717  3.570413E-19
   338.0813  3.602645E-19
   338.1909  3.803220E-19
   338.3005  4.049457E-19
   338.4101  4.269323E-19
   338.5196  4.439867E-19
   338.6292  4.605076E-19
   338.7387  4.628551E-19
   338.8482  4.798062E-19
   338.9576  4.788357E-19
   339.0671  4.683497E-19
   339.1765  4.705228E-19
   339.2859  4.679838E-19
   339.3953  4.571658E-19
   339.5047  4.481415E-19
   339.6140  4.352046E-19
   339.7234  4.284567E-19
   339.8327  4.160212E-19
   339.9420  4.189158E-19
   340.0512  4.291799E-19
   340.1605  4.264987E-19
   340.2697  4.163379E-19
   340.3790  4.267291E-19
   340.4882  4.365850E-19
   340.5973  4.385413E-19
   340.7065  4.371236E-19
   340.8156  4.532905E-19
   340.9248  4.594219E-19
   341.0339  4.737866E-19
   341.1430  4.799790E-19
   341.2520  4.824925E-19
   341.3611  4.880260E-19
   341.4701  4.895673E-19
   341.5791  4.930412E-19
   341.6881  4.848316E-19
   341.7971  4.735478E-19
   341.9061  4.775417E-19
   342.0150  4.719557E-19
   342.1239  4.600401E-19
   342.2328  4.378520E-19
   342.3417  4.217461E-19
   342.4506  4.037161E-19
   342.5594  4.118579E-19
   342.6683  4.078963E-19
   342.7771  3.967649E-19
   342.8859  3.899340E-19
   342.9947  3.887331E-19
   343.1034  3.808792E-19
   343.2122  3.842278E-19
   343.3209  3.899713E-19
   343.4296  4.014532E-19
   343.5383  4.183094E-19
   343.6470  4.293002E-19
   343.7556  4.337209E-19
   343.8643  4.348947E-19
   343.9729  4.406314E-19
   344.0815  4.400759E-19
   344.1901  4.255333E-19
   344.2987  4.192986E-19
   344.4072  4.260990E-19
   344.5158  4.253673E-19
   344.6243  4.236736E-19
   344.7328  4.350522E-19
   344.8413  4.394085E-19
   344.9498  4.510226E-19
   345.0582  4.500995E-19
   345.1666  4.508634E-19
   345.2751  4.477486E-19
   345.3835  4.482635E-19
   345.4919  4.467967E-19
   345.6002  4.451876E-19
   345.7086  4.452841E-19
   345.8169  4.406754E-19
   345.9253  4.456246E-19
   346.0336  4.756142E-19
   346.1419  4.889830E-19
   346.2501  4.888508E-19
   346.3584  4.868692E-19
   346.4666  4.924687E-19
   346.5749  4.859766E-19
   346.6831  4.924941E-19
   346.7913  4.954514E-19
   346.8995  4.902109E-19
   347.0076  4.952194E-19
   347.1158  4.788120E-19
   347.2239  4.735715E-19
   347.3320  4.695861E-19
   347.4401  4.548420E-19
   347.5482  4.628060E-19
   347.6563  4.596658E-19
   347.7644  4.579060E-19
   347.8724  4.571336E-19
   347.9805  4.713019E-19
   348.0885  5.059781E-19
   348.1965  5.350412E-19
   348.3045  5.719819E-19
   348.4124  5.974119E-19
   348.5204  6.043919E-19
   348.6283  5.975796E-19
   348.7363  5.798545E-19
   348.8442  5.506152E-19
   348.9521  5.390537E-19
   349.0599  5.233323E-19
   349.1678  5.007901E-19
   349.2757  4.666390E-19
   349.3835  4.473285E-19
   349.4913  4.309618E-19
   349.5992  4.170357E-19
   349.7070  4.240733E-19
   349.8147  4.109332E-19
   349.9225  4.125066E-19
   350.0303  4.172305E-19
   350.1380  4.172508E-19
   350.2458  4.117428E-19
   350.3535  4.279232E-19
   350.4612  4.338852E-19
   350.5689  4.484125E-19
   350.6765  4.626468E-19
   350.7842  4.754245E-19
   350.8919  4.685224E-19
   350.9995  4.873773E-19
   351.1071  4.893505E-19
   351.2147  4.961018E-19
   351.3223  4.935087E-19
   351.4299  4.872418E-19
   351.5375  4.830345E-19
   351.6451  4.732141E-19
   351.7526  4.573775E-19
   351.8601  4.555195E-19
   351.9677  4.387547E-19
   352.0752  4.399166E-19
   352.1827  4.633243E-19
   352.2901  4.756125E-19
   352.3976  4.750451E-19
   352.5051  4.787459E-19
   352.6125  4.598961E-19
   352.7200  4.464782E-19
   352.8274  4.253216E-19
   352.9348  4.113295E-19
   353.0422  3.968208E-19
   353.1496  3.975356E-19
   353.2570  4.087685E-19
   353.3643  4.100168E-19
   353.4717  4.294205E-19
   353.5790  4.377063E-19
   353.6864  4.510429E-19
   353.7937  4.798926E-19
   353.9010  4.974602E-19
   354.0083  5.243350E-19
   354.1156  5.372143E-19
   354.2228  5.751103E-19
   354.3301  5.934130E-19
   354.4374  6.123745E-19
   354.5446  6.107959E-19
   354.6518  6.073136E-19
   354.7591  6.001609E-19
   354.8663  5.974864E-19
   354.9735  5.773494E-19
   355.0806  5.556101E-19
   355.1878  5.336387E-19
   355.2950  5.246280E-19
   355.4021  5.084425E-19
   355.5093  4.935053E-19
   355.6164  4.764932E-19
   355.7236  4.645895E-19
   355.8307  4.620811E-19
   355.9378  4.705194E-19
   356.0449  4.686291E-19
   356.1520  4.681871E-19
   356.2590  4.821504E-19
   356.3661  4.887475E-19
   356.4731  4.994927E-19
   356.5802  5.055241E-19
   356.6872  5.157629E-19
   356.7943  5.363606E-19
   356.9013  5.576121E-19
   357.0083  5.756235E-19
   357.1153  5.928828E-19
   357.2223  6.112329E-19
   357.3292  6.167190E-19
   357.4362  6.179436E-19
   357.5432  5.949424E-19
   357.6501  5.944478E-19
   357.7571  5.747800E-19
   357.8640  5.647547E-19
   357.9709  5.551833E-19
   358.0778  5.440807E-19
   358.1848  5.326970E-19
   358.2917  5.369670E-19
   358.3985  5.274430E-19
   358.5054  5.208204E-19
   358.6123  5.045350E-19
   358.7192  4.978260E-19
   358.8260  4.926076E-19
   358.9329  4.834325E-19
   359.0397  4.715526E-19
   359.1465  4.644964E-19
   359.2534  4.717626E-19
   359.3602  4.720370E-19
   359.4670  4.643812E-19
   359.5738  4.733429E-19
   359.6806  4.776721E-19
   359.7874  4.697640E-19
   359.8942  4.778940E-19
   360.0009  4.727111E-19
   360.1077  4.709801E-19
   360.2144  4.748283E-19
   360.3212  4.841185E-19
   360.4279  5.043402E-19
   360.5347  5.089337E-19
   360.6414  5.247415E-19
   360.7481  5.485184E-19
   360.8548  5.670650E-19
   360.9615  5.804964E-19
   361.0682  5.786079E-19
   361.1749  5.748156E-19
   361.2816  5.657743E-19
   361.3883  5.526477E-19
   361.4950  5.523412E-19
   361.6016  5.437572E-19
   361.7083  5.468941E-19
   361.8149  5.291130E-19
   361.9216  5.367485E-19
   362.0282  5.269840E-19
   362.1348  5.302106E-19
   362.2415  5.369941E-19
   362.3481  5.454239E-19
   362.4547  5.402952E-19
   362.5613  5.455814E-19
   362.6679  5.432847E-19
   362.7745  5.436488E-19
   362.8811  5.385862E-19
   362.9877  5.442603E-19
   363.0943  5.472616E-19
   363.2008  5.373904E-19
   363.3074  5.252919E-19
   363.4140  5.383525E-19
   363.5205  5.316808E-19
   363.6271  5.105614E-19
   363.7336  5.043080E-19
   363.8402  5.076109E-19
   363.9467  4.966692E-19
   364.0532  5.007393E-19
   364.1597  5.124414E-19
   364.2663  5.325531E-19
   364.3728  5.414757E-19
   364.4793  5.489774E-19
   364.5858  5.746055E-19
   364.6923  5.918649E-19
   364.7988  6.029742E-19
   364.9053  6.068393E-19
   365.0118  6.116462E-19
   365.1183  6.307280E-19
   365.2247  6.370694E-19
   365.3312  6.624283E-19
   365.4377  6.580499E-19
   365.5441  6.526994E-19
   365.6506  6.359634E-19
   365.7571  6.321186E-19
   365.8635  6.175574E-19
   365.9700  6.058451E-19
   366.0764  5.800205E-19
   366.1828  5.611554E-19
   366.2893  5.303461E-19
   366.3957  5.182239E-19
   366.5021  4.889067E-19
   366.6086  4.899094E-19
   366.7150  4.952211E-19
   366.8214  5.005327E-19
   366.9278  5.028565E-19
   367.0342  5.136863E-19
   367.1406  5.288793E-19
   367.2470  5.471752E-19
   367.3534  5.642025E-19
   367.4598  5.798325E-19
   367.5662  5.674664E-19
   367.6726  5.675273E-19
   367.7790  5.654322E-19
   367.8854  5.650494E-19
   367.9918  5.544855E-19
   368.0982  5.613519E-19
   368.2045  5.631371E-19
   368.3109  5.553560E-19
   368.4173  5.503900E-19
   368.5236  5.521972E-19
   368.6300  5.421244E-19
   368.7364  5.345347E-19
   368.8427  5.267740E-19
   368.9491  5.256527E-19
   369.0554  5.318637E-19
   369.1618  5.331171E-19
   369.2681  5.386285E-19
   369.3745  5.532964E-19
   369.4808  5.555999E-19
   369.5872  5.445584E-19
   369.6935  5.419788E-19
   369.7999  5.371347E-19
   369.9062  5.351326E-19
   370.0125  5.286422E-19
   370.1189  5.426529E-19
   370.2252  5.490976E-19
   370.3315  5.427240E-19
   370.4379  5.319772E-19
   370.5442  5.192706E-19
   370.6505  5.126650E-19
   370.7569  5.039523E-19
   370.8632  4.904379E-19
   370.9695  4.868353E-19
   371.0758  4.899653E-19
   371.1821  5.071654E-19
   371.2885  5.214454E-19
   371.3948  5.324531E-19
   371.5011  5.568347E-19
   371.6074  5.717871E-19
   371.7137  5.882961E-19
   371.8200  6.024983E-19
   371.9263  6.144494E-19
   372.0326  6.241766E-19
   372.1390  6.393899E-19
   372.2453  6.390664E-19
   372.3516  6.335075E-19
   372.4579  6.361057E-19
   372.5642  6.482076E-19
   372.6705  6.487665E-19
   372.7768  6.330519E-19
   372.8831  6.140734E-19
   372.9894  5.903303E-19
   373.0957  5.819090E-19
   373.2020  5.719074E-19
   373.3083  5.588113E-19
   373.4146  5.455204E-19
   373.5209  5.474140E-19
   373.6272  5.507423E-19
   373.7335  5.417078E-19
   373.8398  5.471176E-19
   373.9461  5.625206E-19
   374.0524  5.624495E-19
   374.1587  5.595007E-19
   374.2650  5.488622E-19
   374.3713  5.330815E-19
   374.4776  5.181240E-19
   374.5839  5.076447E-19
   374.6902  5.063405E-19
   374.7965  5.012610E-19
   374.9028  5.015201E-19
   375.0091  5.145857E-19
   375.1154  5.399141E-19
   375.2217  5.555949E-19
   375.3280  5.800154E-19
   375.4343  6.016192E-19
   375.5406  6.079674E-19
   375.6469  6.182383E-19
   375.7532  6.242731E-19
   375.8595  6.267104E-19
   375.9659  6.313462E-19
   376.0722  6.335278E-19
   376.1785  6.642254E-19
   376.2848  7.044537E-19
   376.3911  7.207984E-19
   376.4974  7.190809E-19
   376.6037  6.996197E-19
   376.7100  6.783597E-19
   376.8163  6.742812E-19
   376.9226  6.539426E-19
   377.0290  6.229859E-19
   377.1353  5.918564E-19
   377.2416  5.805523E-19
   377.3479  5.628983E-19
   377.4542  5.495041E-19
   377.5605  5.172957E-19
   377.6669  5.252445E-19
   377.7732  5.259762E-19
   377.8795  5.207764E-19
   377.9858  5.357339E-19
   378.0922  5.548090E-19
   378.1985  5.462132E-19
   378.3048  5.302936E-19
   378.4112  5.217080E-19
   378.5175  5.324294E-19
   378.6238  5.327563E-19
   378.7302  5.342570E-19
   378.8365  5.360388E-19
   378.9428  5.454002E-19
   379.0492  5.589587E-19
   379.1555  5.673647E-19
   379.2619  5.846986E-19
   379.3682  5.997578E-19
   379.4746  6.249252E-19
   379.5809  6.543779E-19
   379.6872  6.762222E-19
   379.7936  6.873163E-19
   379.9000  6.862492E-19
   380.0063  6.953836E-19
   380.1127  6.860240E-19
   380.2190  6.772978E-19
   380.3254  6.736562E-19
   380.4318  6.657616E-19
   380.5381  6.484108E-19
   380.6445  6.575791E-19
   380.7509  6.661715E-19
   380.8572  6.708056E-19
   380.9636  6.573115E-19
   381.0700  6.524843E-19
   381.1764  6.298151E-19
   381.2827  6.207654E-19
   381.3891  6.177945E-19
   381.4955  6.232162E-19
   381.6019  6.256146E-19
   381.7083  6.254046E-19
   381.8147  6.317714E-19
   381.9211  6.219662E-19
   382.0275  6.238887E-19
   382.1339  6.195730E-19
   382.2403  6.239530E-19
   382.3467  6.181689E-19
   382.4531  6.030064E-19
   382.5595  5.756015E-19
   382.6659  5.691093E-19
   382.7723  5.620785E-19
   382.8787  5.814822E-19
   382.9851  5.923645E-19
   383.0916  5.923832E-19
   383.1980  5.839296E-19
   383.3044  6.032926E-19
   383.4108  5.998103E-19
   383.5173  6.076777E-19
   383.6237  6.034857E-19
   383.7301  6.154046E-19
   383.8366  6.245018E-19
   383.9430  6.447929E-19
   384.0495  6.480754E-19
   384.1559  6.458431E-19
   384.2623  6.461869E-19
   384.3688  6.444220E-19
   384.4753  6.571285E-19
   384.5817  6.725705E-19
   384.6882  6.863526E-19
   384.7946  6.968911E-19
   384.9011  7.040489E-19
   385.0076  7.064405E-19
   385.1140  6.896215E-19
   385.2205  6.582617E-19
   385.3270  6.444271E-19
   385.4334  6.377622E-19
   385.5399  6.412310E-19
   385.6464  6.349692E-19
   385.7529  6.609869E-19
   385.8594  6.831632E-19
   385.9659  6.639205E-19
   386.0724  6.339411E-19
   386.1789  6.193358E-19
   386.2854  6.111923E-19
   386.3919  5.848324E-19
   386.4984  5.685588E-19
   386.6049  5.642364E-19
   386.7114  5.517602E-19
   386.8179  5.765398E-19
   386.9244  6.120883E-19
   387.0309  6.250844E-19
   387.1374  6.382839E-19
   387.2440  6.400623E-19
   387.3505  6.483414E-19
   387.4570  6.476723E-19
   387.5636  6.577959E-19
   387.6701  6.587986E-19
   387.7766  6.547776E-19
   387.8832  6.641204E-19
   387.9897  6.705515E-19
   388.0963  6.685936E-19
   388.2028  6.672013E-19
   388.3093  6.444593E-19
   388.4159  6.309414E-19
   388.5225  6.302572E-19
   388.6290  6.380349E-19
   388.7356  6.300946E-19
   388.8421  6.227589E-19
   388.9487  6.363682E-19
   389.0553  6.532990E-19
   389.1618  6.654686E-19
   389.2684  6.862696E-19
   389.3750  6.781751E-19
   389.4816  6.773265E-19
   389.5882  6.663476E-19
   389.6947  6.477248E-19
   389.8013  6.383567E-19
   389.9079  6.458922E-19
   390.0145  6.441442E-19
   390.1211  6.577044E-19
   390.2277  6.464325E-19
   390.3343  6.681532E-19
   390.4409  6.660512E-19
   390.5475  6.539697E-19
   390.6541  6.551604E-19
   390.7607  6.457398E-19
   390.8673  6.393441E-19
   390.9739  6.386717E-19
   391.0805  6.500944E-19
   391.1872  6.457889E-19
   391.2938  6.434955E-19
   391.4004  6.447218E-19
   391.5070  6.527959E-19
   391.6136  6.692677E-19
   391.7203  7.012847E-19
   391.8269  7.472277E-19
   391.9335  7.534353E-19
   392.0402  7.456136E-19
   392.1468  7.019859E-19
   392.2534  6.765356E-19
   392.3601  6.691186E-19
   392.4667  6.674520E-19
   392.5734  6.579788E-19
   392.6800  6.658158E-19
   392.7867  6.694963E-19
   392.8933  6.606532E-19
   393.0000  6.502265E-19
   393.1066  6.131570E-19
   393.2133  5.775594E-19
   393.3199  5.755320E-19
   393.4266  5.751120E-19
   393.5333  5.696733E-19
   393.6399  5.909977E-19
   393.7466  5.999407E-19
   393.8532  6.006334E-19
   393.9599  6.060246E-19
   394.0666  6.118512E-19
   394.1732  5.966684E-19
   394.2799  5.875424E-19
   394.3866  5.818175E-19
   394.4933  5.543686E-19
   394.5999  5.654762E-19
   394.7066  5.562029E-19
   394.8133  5.896732E-19
   394.9200  6.054877E-19
   395.0267  6.076083E-19
   395.1333  6.055707E-19
   395.2400  6.396067E-19
   395.3467  6.529213E-19
   395.4534  6.792947E-19
   395.5601  6.862221E-19
   395.6668  6.954361E-19
   395.7734  6.761748E-19
   395.8801  7.084967E-19
   395.9868  7.070079E-19
   396.0935  7.008663E-19
   396.2002  6.801890E-19
   396.3069  6.486530E-19
   396.4136  6.118579E-19
   396.5203  6.039481E-19
   396.6270  5.739128E-19
   396.7337  5.501613E-19
   396.8404  5.704999E-19
   396.9470  5.491823E-19
   397.0537  5.532270E-19
   397.1604  5.496329E-19
   397.2671  5.574715E-19
   397.3738  5.553916E-19
   397.4805  5.336083E-19
   397.5872  5.320754E-19
   397.6939  5.583320E-19
   397.8006  5.882961E-19
   397.9073  6.309448E-19
   398.0140  6.649469E-19
   398.1207  6.936865E-19
   398.2274  6.943369E-19
   398.3341  6.956106E-19
   398.4408  7.128462E-19
   398.5475  7.405797E-19
   398.6541  7.418619E-19
   398.7608  7.087778E-19
   398.8675  6.782784E-19
   398.9742  6.244527E-19
   399.0809  5.716550E-19
   399.1876  5.583455E-19
   399.2943  5.652611E-19
   399.4010  5.546616E-19
   399.5076  5.597615E-19
   399.6143  5.977049E-19
   399.7210  6.445135E-19
   399.8756  6.847706E-19
   400.1230  7.284796E-19
   400.3704  7.417840E-19
   400.6177  7.321838E-19
   400.8650  7.235778E-19
   401.1122  7.187117E-19
   401.3594  7.041996E-19
   401.6066  6.794878E-19
   401.8537  6.583260E-19
   402.1007  6.338276E-19
   402.3477  6.047848E-19
   402.5947  5.826170E-19
   402.8416  5.714264E-19
   403.0885  5.665585E-19
   403.3354  5.641636E-19
   403.5821  5.753389E-19
   403.8289  6.075507E-19
   404.0756  6.401351E-19
   404.3223  6.426893E-19
   404.5689  6.316494E-19
   404.8154  6.491019E-19
   405.0620  6.925737E-19
   405.3084  7.179275E-19
   405.5549  6.890880E-19
   405.8013  6.332365E-19
   406.0476  6.011619E-19
   406.2939  5.893649E-19
   406.5402  5.658353E-19
   406.7864  5.298752E-19
   407.0325  5.058968E-19
   407.2787  5.021265E-19
   407.5248  5.177835E-19
   407.7708  5.581202E-19
   408.0168  6.230977E-19
   408.2627  6.975059E-19
   408.5086  7.449022E-19
   408.7545  7.333000E-19
   409.0003  6.895131E-19
   409.2461  6.603331E-19
   409.4918  6.582413E-19
   409.7375  6.522201E-19
   409.9831  6.393696E-19
   410.2287  6.599741E-19
   410.4743  7.039354E-19
   410.7198  7.151684E-19
   410.9652  6.803753E-19
   411.2106  6.272050E-19
   411.4560  5.807454E-19
   411.7013  5.552866E-19
   411.9466  5.479814E-19
   412.1919  5.489096E-19
   412.4371  5.636165E-19
   412.6822  6.001050E-19
   412.9273  6.538850E-19
   413.1724  7.238776E-19
   413.4174  7.909384E-19
   413.6624  7.983672E-19
   413.9073  7.244959E-19
   414.1522  6.302131E-19
   414.3971  5.853795E-19
   414.6419  5.924120E-19
   414.8866  6.082689E-19
   415.1314  6.036263E-19
   415.3760  5.706439E-19
   415.6207  5.236100E-19
   415.8653  4.958562E-19
   416.1098  4.938237E-19
   416.3543  5.011102E-19
   416.5988  5.087203E-19
   416.8432  5.181206E-19
   417.0875  5.405831E-19
   417.3319  5.680101E-19
   417.5762  5.784165E-19
   417.8204  5.797664E-19
   418.0646  5.837908E-19
   418.3087  5.896799E-19
   418.5529  5.955369E-19
   418.7969  5.828660E-19
   419.0410  5.665941E-19
   419.2849  5.854727E-19
   419.5289  6.249828E-19
   419.7728  6.464969E-19
   420.0166  6.434447E-19
   420.2604  6.413326E-19
   420.5042  6.464393E-19
   420.7479  6.505720E-19
   420.9916  6.455822E-19
   421.2353  6.199202E-19
   421.4789  5.917040E-19
   421.7224  6.016971E-19
   421.9659  6.404248E-19
   422.2094  6.560378E-19
   422.4528  6.402215E-19
   422.6962  6.183586E-19
   422.9396  6.053200E-19
   423.1829  6.112397E-19
   423.4261  6.357534E-19
   423.6694  6.574537E-19
   423.9125  6.701129E-19
   424.1557  6.804092E-19
   424.3988  6.945537E-19
   424.6418  6.965422E-19
   424.8848  6.617643E-19
   425.1278  6.016734E-19
   425.3707  5.553154E-19
   425.6136  5.247465E-19
   425.8565  4.884376E-19
   426.0993  4.532854E-19
   426.3420  4.370694E-19
   426.5848  4.361921E-19
   426.8274  4.586597E-19
   427.0701  5.215623E-19
   427.3127  5.968936E-19
   427.5552  6.405636E-19
   427.7977  6.561377E-19
   428.0402  6.632735E-19
   428.2826  6.505957E-19
   428.5250  6.128132E-19
   428.7674  5.682082E-19
   429.0097  5.265097E-19
   429.2520  4.845098E-19
   429.4942  4.495355E-19
   429.7364  4.355078E-19
   429.9785  4.555161E-19
   430.2206  5.179834E-19
   430.4627  5.986856E-19
   430.7047  6.523928E-19
   430.9467  6.709546E-19
   431.1887  6.601925E-19
   431.4306  6.323794E-19
   431.6724  5.948798E-19
   431.9143  5.460658E-19
   432.1560  4.927787E-19
   432.3978  4.510581E-19
   432.6395  4.385125E-19
   432.8812  4.609463E-19
   433.1228  5.028853E-19
   433.3644  5.465909E-19
   433.6059  5.848798E-19
   433.8474  6.120510E-19
   434.0889  6.088888E-19
   434.3303  5.892023E-19
   434.5717  6.078691E-19
   434.8131  6.984155E-19
   435.0544  7.949712E-19
   435.2957  7.965633E-19
   435.5369  7.211846E-19
   435.7781  6.597556E-19
   436.0192  6.290139E-19
   436.2604  5.997883E-19
   436.5014  5.670124E-19
   436.7425  5.352105E-19
   436.9835  4.912526E-19
   437.2244  4.388276E-19
   437.4654  4.026710E-19
   437.7062  3.882098E-19
   437.9471  3.806895E-19
   438.1879  3.904963E-19
   438.4287  4.493068E-19
   438.6694  5.666246E-19
   438.9101  6.844505E-19
   439.1508  7.507473E-19
   439.3914  7.650748E-19
   439.6320  7.265487E-19
   439.8725  6.717016E-19
   440.1130  6.205537E-19
   440.3535  5.424310E-19
   440.5939  4.706532E-19
   440.8343  4.432076E-19
   441.0747  4.340783E-19
   441.3150  4.102946E-19
   441.5553  3.808216E-19
   441.7955  3.619956E-19
   442.0357  3.661266E-19
   442.2759  3.845868E-19
   442.5160  4.008469E-19
   442.7561  4.170002E-19
   442.9962  4.325217E-19
   443.2362  4.414461E-19
   443.4762  4.518119E-19
   443.7161  4.596539E-19
   443.9561  4.737815E-19
   444.1959  5.185457E-19
   444.4358  5.877237E-19
   444.6756  6.700112E-19
   444.9154  7.130241E-19
   445.1551  6.701467E-19
   445.3948  6.039583E-19
   445.6345  5.593008E-19
   445.8741  5.218756E-19
   446.1137  4.856598E-19
   446.3532  4.484430E-19
   446.5928  4.145679E-19
   446.8323  4.060094E-19
   447.0717  4.253910E-19
   447.3111  4.767066E-19
   447.5505  5.704304E-19
   447.7899  6.963406E-19
   448.0292  7.972290E-19
   448.2684  7.971223E-19
   448.5077  6.920605E-19
   448.7469  5.852525E-19
   448.9861  5.257476E-19
   449.2252  4.869064E-19
   449.4643  4.455484E-19
   449.7034  4.092529E-19
   449.9424  3.952067E-19
   450.1814  4.200151E-19
   450.4204  4.543525E-19
   450.6593  4.709309E-19
   450.8982  4.642559E-19
   451.1371  4.477604E-19
   451.3759  4.373879E-19
   451.6147  4.383076E-19
   451.8535  4.635123E-19
   452.0922  4.929294E-19
   452.3309  5.051058E-19
   452.5696  5.114692E-19
   452.8083  4.994808E-19
   453.0469  4.810189E-19
   453.2854  4.888864E-19
   453.5240  4.843776E-19
   453.7625  4.377639E-19
   454.0009  3.924137E-19
   454.2394  3.800425E-19
   454.4778  4.163565E-19
   454.7162  4.633954E-19
   454.9545  4.676298E-19
   455.1928  4.436378E-19
   455.4311  4.196628E-19
   455.6693  4.108756E-19
   455.9076  4.244899E-19
   456.1457  4.252843E-19
   456.3839  3.946138E-19
   456.6220  3.529458E-19
   456.8601  3.394195E-19
   457.0982  3.728220E-19
   457.3362  4.443306E-19
   457.5742  5.152819E-19
   457.8122  5.524800E-19
   458.0501  5.550224E-19
   458.2880  5.308915E-19
   458.5259  5.052531E-19
   458.7637  4.696403E-19
   459.0015  4.181756E-19
   459.2393  3.992767E-19
   459.4771  4.196441E-19
   459.7148  4.422201E-19
   459.9525  4.646133E-19
   460.1901  4.967336E-19
   460.4278  5.283119E-19
   460.6654  5.285677E-19
   460.9030  4.920317E-19
   461.1405  4.566967E-19
   461.3780  4.278571E-19
   461.6155  3.962195E-19
   461.8530  3.693024E-19
   462.0904  3.619515E-19
   462.3278  3.705304E-19
   462.5652  4.039786E-19
   462.8025  4.923755E-19
   463.0398  5.904794E-19
   463.2771  6.244730E-19
   463.5144  6.001135E-19
   463.7516  5.409710E-19
   463.9888  4.872435E-19
   464.2260  4.641881E-19
   464.4631  4.593541E-19
   464.7002  4.441646E-19
   464.9373  4.091073E-19
   465.1744  3.649444E-19
   465.4114  3.186999E-19
   465.6484  2.808089E-19
   465.8854  2.644879E-19
   466.1223  2.735495E-19
   466.3593  3.125397E-19
   466.5962  3.779456E-19
   466.8330  4.474572E-19
   467.0699  4.840609E-19
   467.3067  4.664239E-19
   467.5435  4.394644E-19
   467.7802  4.362056E-19
   468.0170  4.396694E-19
   468.2537  4.099576E-19
   468.4904  3.664417E-19
   468.7270  3.448057E-19
   468.9637  3.343010E-19
   469.2003  3.203851E-19
   469.4369  2.981699E-19
   469.6734  2.810427E-19
   469.9100  2.921926E-19
   470.1465  3.173516E-19
   470.3830  3.334304E-19
   470.6194  3.293824E-19
   470.8558  3.135305E-19
   471.0922  3.042606E-19
   471.3286  3.062017E-19
   471.5650  3.186524E-19
   471.8013  3.449649E-19
   472.0376  3.627019E-19
   472.2739  3.581321E-19
   472.5102  3.443907E-19
   472.7464  3.392400E-19
   472.9826  3.384016E-19
   473.2188  3.491010E-19
   473.4550  3.936518E-19
   473.6911  4.694879E-19
   473.9272  5.448429E-19
   474.1633  5.521345E-19
   474.3994  5.104716E-19
   474.6355  5.019910E-19
   474.8715  5.138574E-19
   475.1075  4.972891E-19
   475.3435  4.666271E-19
   475.5794  4.231434E-19
   475.8154  3.849154E-19
   476.0513  3.663366E-19
   476.2872  3.493703E-19
   476.5230  3.316892E-19
   476.7589  3.202158E-19
   476.9947  3.148229E-19
   477.2305  3.130631E-19
   477.4663  3.140573E-19
   477.7021  3.153666E-19
   477.9378  3.124618E-19
   478.1735  3.025838E-19
   478.4092  2.973586E-19
   478.6449  3.043318E-19
   478.8805  3.181833E-19
   479.1162  3.388267E-19
   479.3518  3.843870E-19
   479.5874  4.342324E-19
   479.8230  4.540137E-19
   480.0585  4.262701E-19
   480.2940  3.845767E-19
   480.5296  3.723613E-19
   480.7650  3.645294E-19
   481.0005  3.545786E-19
   481.2360  3.664450E-19
   481.4714  3.725730E-19
   481.7068  3.511132E-19
   481.9422  3.186812E-19
   482.1776  2.894369E-19
   482.4129  2.745099E-19
   482.6483  2.666712E-19
   482.8836  2.475860E-19
   483.1189  2.256874E-19
   483.3542  2.173101E-19
   483.5894  2.138583E-19
   483.8247  2.139582E-19
   484.0599  2.262684E-19
   484.2951  2.411362E-19
   484.5303  2.579585E-19
   484.7655  2.700400E-19
   485.0006  2.763256E-19
   485.2358  2.763747E-19
   485.4709  2.704838E-19
   485.7060  2.720133E-19
   485.9411  2.793557E-19
   486.1762  2.780058E-19
   486.4112  2.568101E-19
   486.6462  2.382009E-19
   486.8813  2.382686E-19
   487.1163  2.325488E-19
   487.3512  2.317020E-19
   487.5862  2.504823E-19
   487.8212  2.833208E-19
   488.0561  3.178835E-19
   488.2910  3.737824E-19
   488.5259  4.432737E-19
   488.7608  5.085170E-19
   488.9957  5.178072E-19
   489.2305  4.676671E-19
   489.4654  4.324709E-19
   489.7002  4.011111E-19
   489.9350  3.564519E-19
   490.1698  3.300785E-19
   490.4046  3.146603E-19
   490.6394  2.838814E-19
   490.8741  2.491527E-19
   491.1089  2.195713E-19
   491.3436  2.014922E-19
   491.5783  2.023306E-19
   491.8130  2.211516E-19
   492.0477  2.424471E-19
   492.2824  2.408228E-19
   492.5170  2.261956E-19
   492.7517  2.249659E-19
   492.9863  2.372490E-19
   493.2209  2.656498E-19
   493.4555  2.917421E-19
   493.6901  3.005191E-19
   493.9247  3.075109E-19
   494.1592  3.257764E-19
   494.3938  3.500732E-19
   494.6283  3.661232E-19
   494.8628  3.639891E-19
   495.0974  3.435032E-19
   495.3319  3.271618E-19
   495.5664  3.330968E-19
   495.8008  3.431305E-19
   496.0353  3.406035E-19
   496.2698  3.368027E-19
   496.5042  3.326869E-19
   496.7386  3.228140E-19
   496.9731  2.945554E-19
   497.2075  2.589324E-19
   497.4419  2.332484E-19
   497.6763  2.131486E-19
   497.9106  2.036975E-19
   498.1450  1.962687E-19
   498.3794  1.807708E-19
   498.6137  1.709657E-19
   498.8480  1.649647E-19
   499.0824  1.577668E-19
   499.3167  1.470258E-19
   499.5510  1.364543E-19
   499.7853  1.345390E-19
   500.0196  1.358594E-19
   500.2539  1.393614E-19
   500.4881  1.463409E-19
   500.7224  1.540776E-19
   500.9566  1.644083E-19
   501.1909  1.721920E-19
   501.4251  1.689086E-19
   501.6593  1.686729E-19
   501.8936  1.827254E-19
   502.1278  2.075592E-19
   502.3620  2.411497E-19
   502.5962  2.704330E-19
   502.8304  2.984917E-19
   503.0645  2.967573E-19
   503.2987  2.603450E-19
   503.5329  2.284533E-19
   503.7670  2.155910E-19
   504.0012  2.203538E-19
   504.2353  2.504230E-19
   504.4694  2.941066E-19
   504.7036  3.395008E-19
   504.9377  3.563469E-19
   505.1718  3.299853E-19
   505.4059  2.950110E-19
   505.6400  2.592051E-19
   505.8741  2.309821E-19
   506.1082  2.240428E-19
   506.3423  2.301928E-19
   506.5764  2.281502E-19
   506.8104  2.180774E-19
   507.0445  2.035349E-19
   507.2786  1.876153E-19
   507.5126  1.787112E-19
   507.7467  1.741245E-19
   507.9807  1.785300E-19
   508.2147  1.853372E-19
   508.4488  2.005623E-19
   508.6828  2.159450E-19
   508.9168  2.273592E-19
   509.1509  2.478400E-19
   509.3849  2.577857E-19
   509.6189  2.688883E-19
   509.8529  2.824925E-19
   510.0869  2.728246E-19
   510.3209  2.594676E-19
   510.5549  2.509515E-19
   510.7889  2.477249E-19
   511.0229  2.479162E-19
   511.2569  2.549114E-19
   511.4909  2.561513E-19
   511.7249  2.382314E-19
   511.9588  2.328215E-19
   512.1928  2.442289E-19
   512.4268  2.519525E-19
   512.6608  2.493322E-19
   512.8947  2.275252E-19
   513.1287  2.068715E-19
   513.3627  1.897325E-19
   513.5967  1.769192E-19
   513.8306  1.692901E-19
   514.0646  1.567648E-19
   514.2985  1.556254E-19
   514.5325  1.566653E-19
   514.7665  1.497945E-19
   515.0004  1.412212E-19
   515.2344  1.340122E-19
   515.4683  1.339211E-19
   515.7023  1.385471E-19
   515.9362  1.360143E-19
   516.1702  1.299630E-19
   516.4042  1.332484E-19
   516.6381  1.285716E-19
   516.8721  1.180940E-19
   517.1060  1.128361E-19
   517.3400  1.176342E-19
   517.5739  1.179883E-19
   517.8079  1.213758E-19
   518.0418  1.423060E-19
   518.2758  1.713146E-19
   518.5098  2.018055E-19
   518.7437  2.023831E-19
   518.9777  1.812789E-19
   519.2117  1.745022E-19
   519.4456  1.793616E-19
   519.6796  1.795293E-19
   519.9136  1.862010E-19
   520.1475  1.911332E-19
   520.3815  1.801492E-19
   520.6155  1.674703E-19
   520.8494  1.651368E-19
   521.0834  1.612026E-19
   521.3174  1.480949E-19
   521.5514  1.417803E-19
   521.7854  1.390857E-19
   522.0194  1.380651E-19
   522.2534  1.361667E-19
   522.4874  1.356841E-19
   522.7214  1.442427E-19
   522.9554  1.538940E-19
   523.1894  1.563506E-19
   523.4234  1.433650E-19
   523.6574  1.300390E-19
   523.8914  1.317004E-19
   524.1254  1.380166E-19
   524.3595  1.473888E-19
   524.5935  1.619319E-19
   524.8275  1.927389E-19
   525.0616  2.236024E-19
   525.2956  2.403265E-19
   525.5297  2.381145E-19
   525.7637  2.221594E-19
   525.9978  2.161736E-19
   526.2319  2.187481E-19
   526.4659  2.225472E-19
   526.7000  2.174897E-19
   526.9341  1.927389E-19
   527.1682  1.659242E-19
   527.4023  1.628885E-19
   527.6364  1.761655E-19
   527.8705  1.873748E-19
   528.1046  1.882149E-19
   528.3387  1.802695E-19
   528.5728  1.676114E-19
   528.8070  1.566062E-19
   529.0411  1.501479E-19
   529.2753  1.497955E-19
   529.5094  1.436817E-19
   529.7436  1.384992E-19
   529.9777  1.448092E-19
   530.2119  1.559606E-19
   530.4461  1.604314E-19
   530.6803  1.519330E-19
   530.9145  1.419153E-19
   531.1487  1.437632E-19
   531.3829  1.462606E-19
   531.6171  1.448833E-19
   531.8514  1.452994E-19
   532.0856  1.454774E-19
   532.3199  1.496554E-19
   532.5541  1.569165E-19
   532.7884  1.577802E-19
   533.0227  1.472338E-19
   533.2570  1.406961E-19
   533.4913  1.304367E-19
   533.7256  1.169065E-19
   533.9599  1.159221E-19
   534.1942  1.183686E-19
   534.4285  1.154015E-19
   534.6629  1.090956E-19
   534.8972  9.935942E-20
   535.1316  8.441408E-20
   535.3660  7.037254E-20
   535.6004  6.799332E-20
   535.8348  6.983917E-20
   536.0692  7.578137E-20
   536.3036  8.350454E-20
   536.5380  8.424556E-20
   536.7725  7.800916E-20
   537.0069  7.337776E-20
   537.2414  7.327495E-20
   537.4758  7.510488E-20
   537.7103  7.851830E-20
   537.9448  9.062660E-20
   538.1793  1.101696E-19
   538.4139  1.279523E-19
   538.6484  1.348302E-19
   538.8829  1.284882E-19
   539.1175  1.283163E-19
   539.3521  1.316174E-19
   539.5866  1.192878E-19
   539.8212  1.006661E-19
   540.0558  8.895758E-20
   540.2905  7.741838E-20
   540.5251  6.669167E-20
   540.7598  6.288717E-20
   540.9944  6.660089E-20
   541.2291  7.686537E-20
   541.4638  9.221161E-20
   541.6985  1.141217E-19
   541.9332  1.301039E-19
   542.1679  1.391736E-19
   542.4027  1.459720E-19
   542.6374  1.457066E-19
   542.8722  1.439912E-19
   543.1070  1.500888E-19
   543.3418  1.493881E-19
   543.5766  1.455770E-19
   543.8114  1.367541E-19
   544.0463  1.263887E-19
   544.2811  1.203277E-19
   544.5160  1.188171E-19
   544.7509  1.270768E-19
   544.9858  1.423821E-19
   545.2207  1.602801E-19
   545.4557  1.570148E-19
   545.6906  1.396275E-19
   545.9256  1.248418E-19
   546.1606  1.198526E-19
   546.3956  1.164772E-19
   546.6306  1.035857E-19
   546.8656  9.899611E-20
   547.1007  1.086381E-19
   547.3358  1.252174E-19
   547.5708  1.353488E-19
   547.8059  1.390134E-19
   548.0411  1.344690E-19
   548.2762  1.257906E-19
   548.5113  1.196291E-19
   548.7465  1.237247E-19
   548.9817  1.314369E-19
   549.2169  1.400896E-19
   549.4521  1.392381E-19
   549.6874  1.247215E-19
   549.9226  1.099632E-19
   550.1579  1.001518E-19
   550.3932  9.434862E-20
   550.6285  9.014354E-20
   550.8638  8.632955E-20
   551.0992  7.914550E-20
   551.3346  7.431915E-20
   551.5699  7.512944E-20
   551.8053  8.026337E-20
   552.0408  8.359719E-20
   552.2762  8.930818E-20
   552.5117  9.731794E-20
   552.7472  1.021931E-19
   552.9827  1.144138E-19
   553.2182  1.253951E-19
   553.4537  1.171155E-19
   553.6893  1.012083E-19
   553.9249  9.567161E-20
   554.1605  9.396211E-20
   554.3961  8.784444E-20
   554.6317  7.930302E-20
   554.8674  6.899670E-20
   555.1031  6.208280E-20
   555.3388  5.959502E-20
   555.5745  5.508811E-20
   555.8102  5.018013E-20
   556.0460  4.896655E-20
   556.2818  5.169739E-20
   556.5176  5.758589E-20
   556.7534  5.928998E-20
   556.9893  5.646310E-20
   557.2251  5.544177E-20
   557.4610  5.694802E-20
   557.6969  5.605000E-20
   557.9329  5.990532E-20
   558.1688  6.540239E-20
   558.4048  6.369797E-20
   558.6408  5.895461E-20
   558.8768  5.473192E-20
   559.1129  5.021366E-20
   559.3489  4.510581E-20
   559.5850  4.492509E-20
   559.8211  4.596082E-20
   560.0573  4.743066E-20
   560.2934  5.201124E-20
   560.5296  5.484896E-20
   560.7658  5.731438E-20
   561.0020  5.905099E-20
   561.2383  6.101455E-20
   561.4746  6.157654E-20
   561.7109  6.315343E-20
   561.9472  6.463563E-20
   562.1835  6.185584E-20
   562.4199  6.195171E-20
   562.6563  6.810884E-20
   562.8927  7.658946E-20
   563.1291  8.211854E-20
   563.3656  9.257306E-20
   563.6021  1.132523E-19
   563.8386  1.256229E-19
   564.0752  1.195034E-19
   564.3117  1.238001E-19
   564.5483  1.369606E-19
   564.7849  1.325305E-19
   565.0215  1.157185E-19
   565.2582  1.038189E-19
   565.4949  9.988956E-20
   565.7316  9.116182E-20
   565.9683  7.383846E-20
   566.2051  5.802999E-20
   566.4419  4.989456E-20
   566.6787  4.942302E-20
   566.9155  4.964727E-20
   567.1524  5.105715E-20
   567.3893  6.099880E-20
   567.6262  7.089608E-20
   567.8632  7.737807E-20
   568.1001  8.453553E-20
   568.3371  8.709106E-20
   568.5742  7.990447E-20
   568.8112  7.062829E-20
   569.0483  6.582159E-20
   569.2854  6.575537E-20
   569.5225  6.415037E-20
   569.7597  6.425403E-20
   569.9968  7.249447E-20
   570.2341  8.099084E-20
   570.4713  8.887661E-20
   570.7086  1.016252E-19
   570.9458  1.036739E-19
   571.1832  9.813212E-20
   571.4205  9.542263E-20
   571.6579  9.695531E-20
   571.8953  1.005181E-19
   572.1327  1.025625E-19
   572.3702  9.668346E-20
   572.6077  8.244882E-20
   572.8452  7.019334E-20
   573.0827  6.861781E-20
   573.3203  6.750264E-20
   573.5579  6.226234E-20
   573.7955  5.740364E-20
   574.0332  5.240809E-20
   574.2709  4.770420E-20
   574.5086  4.375589E-20
   574.7463  4.093698E-20
   574.9841  4.128640E-20
   575.2219  4.121222E-20
   575.4597  3.822867E-20
   575.6976  3.439351E-20
   575.9355  2.864762E-20
   576.1734  2.387869E-20
   576.4113  2.182231E-20
   576.6493  2.149711E-20
   576.8873  2.168918E-20
   577.1253  2.365342E-20
   577.3634  2.557431E-20
   577.6015  2.712850E-20
   577.8396  3.179444E-20
   578.0778  3.396499E-20
   578.3160  3.754372E-20
   578.5542  4.369085E-20
   578.7924  5.236050E-20
   579.0307  5.730253E-20
   579.2690  5.866193E-20
   579.5073  5.542822E-20
   579.7457  5.371177E-20
   579.9841  5.309016E-20
   580.2225  5.237811E-20
   580.4610  5.023517E-20
   580.6995  4.527146E-20
   580.9380  3.877203E-20
   581.1766  3.348058E-20
   581.4151  3.020909E-20
   581.6538  2.894250E-20
   581.8924  3.053074E-20
   582.1311  2.860037E-20
   582.3698  2.646268E-20
   582.6085  2.528400E-20
   582.8473  2.635123E-20
   583.0861  3.020774E-20
   583.3249  3.145857E-20
   583.5638  3.004260E-20
   583.8027  3.139726E-20
   584.0416  3.541653E-20
   584.2806  3.868107E-20
   584.5196  4.394746E-20
   584.7586  5.273871E-20
   584.9977  5.904218E-20
   585.2368  6.243223E-20
   585.4759  6.639154E-20
   585.7151  6.480162E-20
   585.9543  5.946121E-20
   586.1935  5.407136E-20
   586.4327  5.282509E-20
   586.6720  5.299142E-20
   586.9114  5.393958E-20
   587.1507  5.156054E-20
   587.3901  4.773503E-20
   587.6295  4.382618E-20
   587.8690  3.944055E-20
   588.1085  3.625985E-20
   588.3480  3.497717E-20
   588.5875  3.322651E-20
   588.8271  3.235592E-20
   589.0668  3.487047E-20
   589.3064  4.113312E-20
   589.5461  4.610496E-20
   589.7858  4.898451E-20
   590.0256  5.149380E-20
   590.2654  5.672005E-20
   590.5052  6.132214E-20
   590.7451  6.032892E-20
   590.9850  5.629373E-20
   591.2249  5.506491E-20
   591.4648  6.206367E-20
   591.7048  6.936882E-20
   591.9449  7.302783E-20
   592.1849  7.926152E-20
   592.4250  8.025169E-20
   592.6652  7.593245E-20
   592.9053  7.884384E-20
   593.1455  8.144866E-20
   593.3858  7.119587E-20
   593.6260  6.088380E-20
   593.8664  5.470821E-20
   594.1067  4.581872E-20
   594.3471  3.743854E-20
   594.5875  3.514113E-20
   594.8279  3.496718E-20
   595.0684  3.163709E-20
   595.3089  2.710156E-20
   595.5495  2.377961E-20
   595.7901  2.175879E-20
   596.0307  2.198626E-20
   596.2714  2.519491E-20
   596.5120  2.521693E-20
   596.7528  2.432754E-20
   596.9935  2.554534E-20
   597.2343  2.642643E-20
   597.4752  2.782700E-20
   597.7161  2.795708E-20
   597.9570  2.724503E-20
   598.1979  2.642711E-20
   598.4389  2.799214E-20
   598.6799  2.990710E-20
   598.9210  3.141081E-20
   599.1620  3.405035E-20
   599.4032  3.537097E-20
   599.6443  3.817176E-20
   599.8855  4.336565E-20
   600.1268  4.467916E-20
   600.3680  4.499877E-20
   600.6093  4.331416E-20
   600.8507  4.368814E-20
   601.0920  4.268934E-20
   601.3335  4.216665E-20
   601.5749  4.290919E-20
   601.8164  4.213142E-20
   602.0579  4.009129E-20
   602.2995  3.722546E-20
   602.5411  3.406221E-20
   602.7827  2.972756E-20
   603.0244  2.675418E-20
   603.0779  2.355027E-20
   603.3010  1.832877E-20
   603.5240  1.528385E-20
   603.7470  1.310534E-20
   603.9700  1.063953E-20
   604.1929  1.037002E-20
   604.4157  1.142907E-20
   604.6385  9.842159E-21
   604.8612  9.417840E-21
   605.0839  1.107582E-20
   605.3066  1.436907E-20
   605.5291  1.527523E-20
   605.7517  1.578762E-20
   605.9742  1.508817E-20
   606.1966  1.165993E-20
   606.4190  1.126832E-20
   606.6413  1.301798E-20
   606.8636  1.424637E-20
   607.0859  1.501739E-20
   607.3080  1.458514E-20
   607.5302  1.572756E-20
   607.7523  1.673226E-20
   607.9743  1.893666E-20
   608.1963  1.790347E-20
   608.4182  1.524584E-20
   608.6401  1.531242E-20
   608.8620  1.512948E-20
   609.0838  1.506881E-20
   609.3055  1.485529E-20
   609.5272  1.428048E-20
   609.7489  1.383366E-20
   609.9705  1.381365E-20
   610.1920  1.359521E-20
   610.4135  1.493851E-20
   610.6350  1.514330E-20
   610.8564  1.565920E-20
   611.0777  2.022730E-20
   611.2990  2.526791E-20
   611.5203  3.129547E-20
   611.7415  3.771106E-20
   611.9627  4.264784E-20
   612.1838  4.775349E-20
   612.4049  5.399954E-20
   612.6259  5.995833E-20
   612.8469  6.258958E-20
   613.0678  5.180376E-20
   613.2887  3.704135E-20
   613.5095  3.020960E-20
   613.7303  3.091725E-20
   613.9510  3.274633E-20
   614.1717  3.202395E-20
   614.3924  3.027430E-20
   614.6129  2.832818E-20
   614.8335  2.456415E-20
   615.0540  2.328571E-20
   615.2745  2.449302E-20
   615.4949  2.552045E-20
   615.7152  2.814627E-20
   615.9355  3.117199E-20
   616.1558  3.384168E-20
   616.3760  3.550224E-20
   616.5962  3.760842E-20
   616.8163  4.331196E-20
   617.0364  4.277894E-20
   617.2565  3.802999E-20
   617.4765  3.575986E-20
   617.6964  3.472328E-20
   617.9163  3.216758E-20
   618.1361  2.920893E-20
   618.3560  2.513800E-20
   618.5757  2.136415E-20
   618.7954  1.879422E-20
   619.0151  1.794514E-20
   619.2347  1.737722E-20
   619.4543  1.862213E-20
   619.6739  2.111821E-20
   619.8933  2.173186E-20
   620.1128  2.456974E-20
   620.3322  3.005665E-20
   620.5515  3.482846E-20
   620.7709  3.402986E-20
   620.9901  3.120603E-20
   621.2093  2.787934E-20
   621.4285  2.345085E-20
   621.6476  1.995444E-20
   621.8667  1.728762E-20
   622.0858  1.665372E-20
   622.3048  1.691901E-20
   622.5237  1.757167E-20
   622.7426  1.757268E-20
   622.9615  1.756794E-20
   623.1803  1.951406E-20
   623.3991  2.032520E-20
   623.6178  2.071764E-20
   623.8365  1.992835E-20
   624.0552  1.909604E-20
   624.2738  1.828016E-20
   624.4923  1.805794E-20
   624.7109  1.820801E-20
   624.9293  1.839331E-20
   625.1478  1.770632E-20
   625.3662  1.727052E-20
   625.5845  1.607286E-20
   625.8028  1.663372E-20
   626.0211  1.809927E-20
   626.2393  1.595181E-20
   626.4574  1.446741E-20
   626.6756  1.620279E-20
   626.8937  1.545495E-20
   627.1117  1.302734E-20
   627.3297  1.272504E-20
   627.5477  1.222661E-20
   627.7656  1.090490E-20
   627.9835  1.118392E-20
   628.2013  8.762527E-21
   628.4191  9.262878E-21
   628.6368  9.509760E-21
   628.8545  8.978294E-21
   629.0722  9.670853E-21
   629.2898  9.934570E-21
   629.5074  9.522412E-21
   629.7249  7.719463E-21
   629.9424  6.654821E-21
   630.1599  5.216131E-21
   630.3773  5.103564E-21
   630.5947  6.260211E-21
   630.8120  7.265402E-21
   631.0293  8.364766E-21
   631.2465  8.849518E-21
   631.4638  8.894436E-21
   631.6809  9.747918E-21
   631.8980  9.172398E-21
   632.1151  1.044654E-20
   632.3322  1.204466E-20
   632.5492  1.127277E-20
   632.7661  9.478273E-21
   632.9831  7.191148E-21
   633.2000  9.371312E-21
   633.4168  1.098729E-20
   633.6336  1.254861E-20
   633.8504  1.184744E-20
   634.0671  1.151425E-20
   634.2838  1.227744E-20
   634.5004  1.268238E-20
   634.7170  1.114596E-20
   634.9336  1.022215E-20
   635.1501  9.775645E-21
   635.3666  1.150165E-20
   635.5830  1.134138E-20
   635.7994  1.160610E-20
   636.0158  1.141740E-20
   636.2321  1.133927E-20
   636.4484  1.250601E-20
   636.6647  1.249237E-20
   636.8809  1.310788E-20
   637.0970  1.306750E-20
   637.3132  1.241446E-20
   637.5293  1.392176E-20
   637.7453  1.386018E-20
   637.9613  1.339630E-20
   638.1773  1.292350E-20
   638.3933  1.183484E-20
   638.6092  1.069779E-20
   638.8250  1.233043E-20
   639.0408  1.348935E-20
   639.2566  1.260643E-20
   639.4724  1.136230E-20
   639.6881  1.322795E-20
   639.9037  1.570166E-20
   640.1194  1.546405E-20
   640.3350  1.475894E-20
   640.5505  1.365493E-20
   640.7661  1.485917E-20
   640.9815  1.452813E-20
   641.1970  1.340133E-20
   641.4124  1.386802E-20
   641.6278  1.428450E-20
   641.8431  1.573577E-20
   642.0584  1.801509E-20
   642.2737  1.901576E-20
   642.4889  2.056080E-20
   642.7041  2.178030E-20
   642.9192  2.131469E-20
   643.1343  1.969123E-20
   643.3494  2.041598E-20
   643.5644  2.131181E-20
   643.7794  1.936112E-20
   643.9944  1.763992E-20
   644.2093  1.546051E-20
   644.4242  1.257726E-20
   644.6391  1.163549E-20
   644.8539  1.115892E-20
   645.0687  1.351398E-20
   645.2834  1.489793E-20
   645.4982  1.432056E-20
   645.7128  1.498127E-20
   645.9275  1.497899E-20
   646.1421  1.772326E-20
   646.3567  1.965210E-20
   646.5712  2.181418E-20
   646.7857  2.276200E-20
   647.0002  2.410633E-20
   647.2146  2.498302E-20
   647.4290  2.484549E-20
   647.6433  2.492696E-20
   647.8577  2.447930E-20
   648.0720  2.154385E-20
   648.2862  1.758810E-20
   648.5004  1.313685E-20
   648.7146  9.800001E-21
   648.9288  8.825873E-21
   649.1429  1.084542E-20
   649.3570  1.063365E-20
   649.5710  9.820733E-21
   649.7850  9.414994E-21
   649.9990  9.057629E-21
   650.2130  1.053624E-20
   650.4269  1.080633E-20
   650.6407  1.077034E-20
   650.8546  1.029320E-20
   651.0684  1.058666E-20
   651.2822  1.067862E-20
   651.4959  1.105887E-20
   651.7096  9.860621E-21
   651.9233  8.553213E-21
   652.1369  8.026287E-21
   652.3506  8.448539E-21
   652.5641  7.410574E-21
   652.7777  8.760122E-21
   652.9912  8.241342E-21
   653.2047  6.879853E-21
   653.4181  6.647030E-21
   653.6315  7.120383E-21
   653.8449  5.325429E-21
   654.0582  5.107240E-21
   654.2716  4.556160E-21
   654.4848  5.436116E-21
   654.6981  6.621082E-21
   654.9113  6.847875E-21
   655.1245  8.666661E-21
   655.3376  7.734843E-21
   655.5508  6.803533E-21
   655.7639  7.904133E-21
   655.9769  8.255214E-21
   656.1899  7.000245E-21
   656.4029  6.795318E-21
   656.6159  5.964245E-21
   656.8288  5.423328E-21
   657.0417  6.244747E-21
   657.2546  5.058798E-21
   657.4674  4.409973E-21
   657.6802  5.198923E-21
   657.8930  5.886789E-21
   658.1058  5.123432E-21
   658.3185  5.039405E-21
   658.5311  4.965710E-21
   658.7438  5.118181E-21
   658.9564  5.772563E-21
   659.1690  5.141860E-21
   659.3816  6.452655E-21
   659.5941  6.081469E-21
   659.8066  6.020511E-21
   660.0191  6.391172E-21
   660.2315  4.766220E-21
   660.4439  3.789924E-21
   660.6563  4.130097E-21
   660.8686  4.585564E-21
   661.0809  4.168647E-21
   661.2932  3.428443E-21
   661.5055  2.283449E-21
   661.7177  3.507592E-21
   661.9299  3.025110E-21
   662.1421  3.660030E-21
   662.3542  3.294840E-21
   662.5663  1.913009E-21
   662.7784  1.773698E-21
   662.9905  1.494420E-21
   663.2025  5.608116E-22
   663.4145  2.588393E-21
   663.6265  2.953938E-21
   663.8384  2.473658E-21
   664.0503  2.421168E-21
   664.2622  3.345957E-21
   664.4740  2.626790E-21
   664.6858  3.618313E-21
   664.8976  2.762900E-21
   665.1094  3.686723E-21
   665.3211  4.652382E-21
   665.5328  4.280062E-21
   665.7445  3.624427E-21
   665.9562  6.233179E-21
   666.1678  6.978023E-21
   666.3794  7.087118E-21
   666.5910  7.683539E-21
   666.8025  7.730947E-21
   667.0140  6.521320E-21
   667.2255  7.899052E-21
   667.4370  7.856132E-21
   667.6484  6.708733E-21
   667.8598  9.108798E-21
   668.0712  9.484116E-21
   668.2825  1.041394E-20
   668.4939  8.499945E-21
   668.7052  7.858504E-21
   668.9164  8.165937E-21
   669.1277  8.438139E-21
   669.3389  8.869437E-21
   669.5501  1.037488E-20
   669.7612  1.017849E-20
   669.9724  1.107704E-20
   670.1835  1.204123E-20
   670.3946  1.049405E-20
   670.6056  9.501969E-21
   670.8167  6.839085E-21
   671.0277  5.786587E-21
   671.2386  7.384710E-21
   671.4496  8.134805E-21
   671.6605  7.993292E-21
   671.8714  6.877397E-21
   672.0823  6.360701E-21
   672.2932  8.323168E-21
   672.5040  9.582591E-21
   672.7148  8.654262E-21
   672.9256  9.251615E-21
   673.1363  1.133493E-20
   673.3470  1.236873E-20
   673.5577  1.512350E-20
   673.7684  1.367228E-20
   673.9791  1.172314E-20
   674.1897  1.152500E-20
   674.4003  1.074318E-20
   674.6109  9.234203E-21
   674.8214  8.781920E-21
   675.0319  7.510590E-21
   675.2424  7.463266E-21
   675.4529  8.617626E-21
   675.6634  8.887238E-21
   675.8738  9.539028E-21
   676.0842  9.122161E-21
   676.2946  8.137075E-21
   676.5049  8.826026E-21
   676.7153  1.159931E-20
   676.9256  1.170080E-20
   677.1359  8.502959E-21
   677.3461  8.580330E-21
   677.5564  9.951541E-21
   677.7666  8.123576E-21
   677.9768  6.356247E-21
   678.1870  5.366604E-21
   678.3971  4.397490E-21
   678.6072  3.831133E-21
   678.8173  4.310854E-21
   679.0274  4.753821E-21
   679.2375  4.915930E-21
   679.4475  5.981030E-21
   679.6575  5.180986E-21
   679.8675  5.791617E-21
   680.0775  5.014117E-21
   680.2874  4.899281E-21
   680.4973  4.586140E-21
   680.7072  3.535116E-21
   680.9171  4.762680E-21
   681.1270  5.494957E-21
   681.3368  4.988220E-21
   681.5466  3.393924E-21
   681.7564  3.375141E-21
   681.9662  2.872232E-21
   682.1759  3.425157E-21
   682.3857  3.583828E-21
   682.5954  3.074991E-21
   682.8050  3.794903E-21
   683.0147  4.300184E-21
   683.2243  5.621971E-21
   683.4340  5.103801E-21
   683.6436  2.831700E-21
   683.8531  3.292367E-21
   684.0627  2.512902E-21
   684.2722  3.098331E-21
   684.4818  2.554704E-21
   684.6912  3.739162E-21
   684.9007  5.090963E-21
   685.1102  3.980285E-21
   685.3196  4.988389E-21
   685.5290  4.371355E-21
   685.7384  4.168240E-21
   685.9478  4.345237E-21
   686.1571  5.858537E-21
   686.3665  5.839872E-21
   686.5758  4.485412E-21
   686.7851  4.451825E-21
   686.9944  4.035348E-21
   687.2036  2.770573E-21
   687.4128  3.420736E-21
   687.6221  1.765246E-21
   687.8313  1.976694E-21
   688.0404  2.289293E-21
   688.2496  1.109645E-21
   688.4587  1.153257E-21
   688.6679  2.027642E-21
   688.8770  2.154470E-21
   689.0860  1.182266E-21
   689.2951  1.485075E-21
   689.5042  2.480043E-21
   689.7132  2.032249E-21
   689.9222  1.049901E-21
   690.1312  1.615516E-21
   690.3402  2.289649E-21
   690.5491  1.493812E-21
   690.7580  1.031963E-21
   690.9670  2.988914E-21
   691.1759  2.272338E-21
   691.3847  2.507872E-21
   691.5936  2.133214E-21
   691.8025  2.776010E-21
   692.0113  1.426519E-21
   692.2201  1.547157E-21
   692.4289  1.398079E-21
   692.6377  1.559980E-21
   692.8464  2.263057E-21
   693.0552  2.509396E-21
   693.2639  1.667355E-21
   693.4726  1.704355E-21
   693.6813  1.624874E-21
   693.8900  1.341074E-21
   694.0986  1.754236E-21
   694.3073  1.551765E-21
   694.5159  9.122941E-22
   694.7245  9.059391E-22
   694.9331  1.450127E-21
   695.1417  1.192234E-21
   695.3502  2.258500E-21
   695.5588  2.637240E-21
   695.7673  2.664764E-21
   695.9758  3.115776E-21
   696.1843  2.484210E-21
   696.3928  2.691322E-21
   696.6013  1.891667E-21
   696.8097  2.374641E-21
   697.0181  1.514050E-21
   697.2266  1.634768E-21
   697.4350  1.285116E-21
   697.6434  1.325541E-21
   697.8517  2.440443E-21
   698.0601  2.667576E-21
   698.2684  5.218079E-22
   698.4768  4.808242E-22
   698.6851  4.825315E-22
   698.8934  3.403088E-22
   699.1016  4.105012E-22
   699.3099 -1.889821E-22
   699.5182  2.363073E-21
   699.7264  3.368908E-21
   699.9346  3.161152E-21
   700.1428  2.459566E-21
   700.3510  2.136381E-21
   700.5592  1.617283E-21
   700.7674  1.951660E-21
   700.9755  2.358889E-21
   701.1837  1.345717E-21
   701.3918  1.596313E-21
   701.5999  2.070375E-21
   701.8080  2.281502E-21
   702.0161  1.089674E-21
   702.2242  1.017723E-21
   702.4323  7.203072E-22
   702.6403  1.481544E-21
   702.8483  3.046519E-21
   703.0564  2.069257E-21
   703.2644  1.364689E-21
   703.4724  8.495100E-22
   703.6803  1.823765E-21
   703.8883  2.758479E-21
   704.0963  4.475758E-21
   704.3042  3.218231E-21
   704.5121  2.785528E-21
   704.7201  2.203115E-21
   704.9280  3.082172E-21
   705.1359  3.823680E-21
   705.3438  5.337522E-21
   705.5516  6.129927E-21
   705.7595  5.683268E-21
   705.9673  5.621514E-21
   706.1752  5.052091E-21
   706.3830  4.159365E-21
   706.5908  4.205825E-21
   706.7986  4.464342E-21
   707.0064  4.344374E-21
   707.2142  3.666110E-21
   707.4220  6.690170E-21
   707.6297  6.971858E-21
   707.8375  6.933274E-21
   708.0452  6.410870E-21
   708.2529  6.340867E-21
   708.4606  4.913627E-21
   708.6683  2.459261E-21
   708.8760  3.305443E-21
   709.0837  1.408938E-21
   709.2914  2.277403E-21
   709.4990  2.826822E-21
   709.7067  3.643008E-21
   709.9143  3.832894E-21
   710.1220  2.390359E-21
   710.3296  2.421219E-21
   710.5372  3.582574E-21
   710.7448  4.928379E-21
   710.9524  5.600105E-21
   711.1600  4.044901E-21
   711.3675  4.188769E-21
   711.5751  3.767160E-21
   711.7827  4.787984E-21
   711.9902  5.742871E-21
   712.1977  5.716262E-21
   712.4053  5.355950E-21
   712.6128  5.824578E-21
   712.8203  3.747546E-21
   713.0278  4.886442E-21
   713.2353  4.497743E-21
   713.4428  4.906852E-21
   713.6502  4.932817E-21
   713.8577  4.269019E-21
   714.0652  4.290512E-21
   714.2726  3.063389E-21
   714.4800  3.014507E-21
   714.6875  3.725866E-21
   714.8949  3.578272E-21
   715.1023  2.727992E-21
   715.3097  1.974136E-21
   715.5171  2.352097E-21
   715.7245  2.358974E-21
   715.9319  6.513105E-22
   716.1393  1.241929E-21
   716.3467  1.685938E-21
   716.5540  1.897629E-21
   716.7614  2.979226E-21
   716.9687  1.914177E-21
   717.1761  1.164894E-21
   717.3834  6.671234E-22
   717.5907  1.468033E-21
   717.7980  2.228758E-23
   718.0054  1.650387E-21
   718.2127  1.130546E-21
   718.4200  2.546489E-22
   718.6273  1.848392E-21
   718.8346  1.585859E-21
   719.0418  1.926813E-21
   719.2491  1.000132E-21
   719.4564  1.947206E-21
   719.6636  1.270933E-21
   719.8709  1.005974E-21
   720.0782  3.681253E-22
   720.2854  8.787561E-22
   720.4926 -2.158213E-22
   720.6999  1.588188E-21
   720.9071  2.296220E-21
   721.1143  1.364348E-21
   721.3216 -3.047586E-23
   721.5288  2.046781E-21
   721.7360  1.750951E-21
   721.9432  1.727001E-21
   722.1504  4.616949E-23
   722.3576  1.757150E-21
   722.5648  2.533549E-21
   722.7719  1.543623E-21
   722.9791  1.310848E-21
   723.1863  3.032511E-21
   723.3935  2.397236E-21
   723.6006  9.543499E-22
   723.8078  5.983299E-23
   724.0150 -3.021722E-22
   724.2221  2.117445E-21
   724.4293  1.387356E-21
   724.6364  1.006429E-21
   724.8436  7.736147E-22
   725.0507  1.866448E-21
   725.2578  1.681227E-21
   725.4650  2.163532E-21
   725.6721  1.018016E-21
   725.8792 -3.228275E-22
   726.0863  1.132473E-21
   726.2935  6.585394E-22
   726.5006 -2.744929E-22
   726.7077  1.712299E-21
   726.9148  5.929353E-22
   727.1219 -1.258314E-21
   727.3290 -1.163688E-21
   727.5361  1.487418E-21
   727.7432  2.187210E-21
   727.9503  2.156164E-21
   728.1574  1.732302E-21
   728.3645  1.572392E-21
   728.5716  8.146797E-22
   728.7787  3.102887E-22
   728.9858 -1.072767E-22
   729.1928  7.184780E-22
   729.3999 -3.872867E-23
   729.6070  2.993979E-21
   729.8141  1.047571E-21
   730.0212  2.264310E-22
   730.2282  1.569802E-21
   730.4353  1.198071E-21
   730.6424  1.688810E-21
   730.8495  5.671327E-22
   731.0565 -6.574148E-22
   731.2636  3.603187E-22
   731.4707  1.273944E-21
   731.6777  1.279694E-21
   731.8848  6.296152E-22
   732.0919  7.446854E-25
   732.2989  9.993800E-22
   732.5060  2.096137E-21
   732.7131 -1.743921E-22
   732.9201 -3.494042E-22
   733.1272  6.226556E-22
   733.3343  1.785554E-21
   733.5413  1.993140E-21
   733.7484  1.375054E-21
   733.9555  1.425130E-21
   734.1625 -4.592542E-23
   734.3696  8.723977E-22
   734.5767  2.692203E-21
   734.7837  1.105550E-21
   734.9908  1.143442E-21
   735.1979  7.730134E-22
   735.4049  7.004734E-22
   735.6120  2.466883E-21
   735.8191  5.585843E-22
   736.0262  1.164558E-21
   736.2332  1.769243E-21
   736.4403  8.935544E-22
   736.6474  1.426389E-21
   736.8545  1.303305E-21
   737.0615  1.364224E-21
   737.2686  4.792032E-22
   737.4757  5.649393E-22
   737.6828  4.640137E-22
   737.8899  1.532167E-21
   738.0970  1.040042E-21
   738.3040  2.217579E-21
   738.5111  2.899569E-22
   738.7182  8.269272E-22
   738.9253  7.737468E-22
   739.1324  1.771750E-21
   739.3395  2.161652E-21
   739.5466  5.646209E-22
   739.7537  1.175666E-21
   739.9609  5.245839E-22
   740.1680  2.619066E-21
   740.3751  2.880328E-21
   740.5822  8.177979E-22
   740.7893  1.101273E-22
   740.9964 -1.563977E-22
   741.2036 -1.997341E-22
   741.4107 -4.212227E-22
   741.6178 -4.685326E-22
   741.8250  1.814314E-22
   742.0321 -9.036339E-23
   742.2393 -2.675113E-22
   742.4464  1.084134E-21
   742.6536  2.408127E-21
   742.8607  1.919377E-21
   743.0679  1.498715E-21
   743.2751  2.136059E-21
   743.4822  2.496168E-21
   743.6894  1.417298E-21
   743.8966  2.224337E-21
   744.1038  2.825653E-21
   744.3110  2.502113E-21
   744.5182  2.209415E-21
   744.7254  2.552400E-21
   744.9326  2.205452E-21
   745.1398  1.910604E-21
   745.3470  1.956166E-21
   745.5542  2.602298E-21
   745.7614  3.742075E-21
   745.9687  3.681744E-21
   746.1759  3.005547E-21
   746.3831  3.755879E-21
   746.5904  3.651002E-21
   746.7976  2.875619E-21
   747.0049  1.286613E-21
   747.2122  8.314580E-23
   747.4194  1.034319E-23
   747.6267  3.433440E-22
   747.8340  4.270543E-22
   748.0413  9.110237E-22
   748.2486  2.008824E-21
   748.4559  1.301491E-21
   748.6632  4.372439E-22
   748.8705  1.522518E-21
   749.0778  1.986128E-21
   749.2852  1.752831E-21
   749.4925  2.242749E-21
   749.6998  1.562304E-21
   749.9072  1.700019E-21
   750.1145  1.631399E-21
   750.3219  4.443340E-23
   750.5293 -9.812958E-23
   750.7367 -6.925381E-22
   750.9441 -1.507530E-21
   751.1514 -4.273253E-22
   751.3589 -1.527472E-21
   751.5663  7.757742E-22
   751.7737  9.470278E-22
   751.9811  6.662833E-22
   752.1885  1.689430E-21
   752.3960  7.986822E-22
   752.6034  3.768616E-22
   752.8109  1.760605E-22
   753.0184 -3.350700E-22
   753.2259  4.374387E-22
   753.4333  5.892006E-23
   753.6408  5.522463E-22
   753.8483  1.000622E-21
   754.0559 -4.216546E-22
   754.2634 -1.306742E-21
   754.4709 -6.085704E-22
   754.6785  1.835824E-22
   754.8860  1.389028E-21
   755.0936  8.316765E-22
   755.3011  9.288319E-23
   755.5087  2.257078E-21
   755.7163  2.958207E-21
   755.9239  1.954235E-21
   756.1315  2.218511E-21
   756.3391  9.299040E-22
   756.5468  4.779024E-22
   756.7544  1.114984E-21
   756.9620  4.537817E-22
   757.1697  1.657474E-21
   757.3774  1.265565E-21
   757.5851  1.744226E-21
   757.7928 -6.352266E-22
   758.0005 -5.658624E-22
   758.2082  1.850035E-22
   758.4159  5.809402E-22
   758.6236 -6.128014E-22
   758.8314  8.157739E-22
   759.0391 -4.343798E-23
   759.2469  9.532676E-22
   759.4547  9.728406E-22
   759.6625  1.003154E-22
   759.8703 -5.079699E-22
   760.0781 -5.309846E-22
   760.2859  4.815341E-22
   760.4938  4.660413E-22
   760.7016  4.169071E-22
   760.9095  4.012889E-22
   761.1174  3.888172E-22
   761.3252  3.928379E-22
   761.5331  3.950069E-22
   761.7411  4.157451E-22
   761.9490  4.350742E-22
   762.1569  4.221266E-22
   762.3649  4.384678E-22
   762.5728  5.034010E-22
   762.7808  5.173925E-22
   762.9888  5.202365E-22
   763.1968  5.535460E-22
   763.4048  5.427158E-22
   763.6128  5.516647E-22
   763.8209  5.850000E-22
   764.0289  6.084089E-22
   764.2370  6.463551E-22
   764.4451  6.703874E-22
   764.6532  7.108604E-22
   764.8613  7.517909E-22
   765.0694  7.819465E-22
   765.2776  7.596037E-22
   765.4857  7.175887E-22
   765.6939  6.692402E-22
   765.9021  6.948955E-22
   766.1103  7.269914E-22
   766.3185  6.441013E-22
   766.5267  6.214634E-22
   766.7349  6.069149E-22
   766.9432  6.208216E-22
   767.1515  6.078002E-22
   767.3597  5.705659E-22
   767.5680  5.363970E-22
   767.7764  4.892768E-22
   767.9847  4.862815E-22
   768.1930  4.394269E-22
   768.4014  4.111194E-22
   768.6098  4.005659E-22
   768.8182  3.981829E-22
   769.0266  4.135134E-22
   769.2350  3.953131E-22
   769.4434  3.417007E-22
   769.6519  2.779361E-22
   769.8604  2.383701E-22
   770.0688  2.388124E-22
   770.2773  2.374309E-22
   770.4859  2.517986E-22
   770.6944  2.425771E-22
   770.9030  2.410562E-22
   771.1115  2.314179E-22
   771.3201  2.300401E-22
   771.5287  2.231230E-22
   771.7373  2.317986E-22
   771.9460  2.155326E-22
   772.1546  2.219241E-22
   772.3633  2.235239E-22
   772.5720  2.246036E-22
   772.7807  2.131833E-22
   772.9894  2.642113E-22
   773.1982  2.636853E-22
   773.4069  2.430596E-22
   773.6157  2.202900E-22
   773.8245  2.249725E-22
   774.0333  2.288380E-22
   774.2421  2.716589E-22
   774.4510  2.822401E-22
   774.6598  2.798561E-22
   774.8687  2.661210E-22
   775.0776  2.627329E-22
   775.2866  2.683494E-22
   775.4955  3.055844E-22
   775.7045  3.127428E-22
   775.9134  3.339834E-22
   776.1224  3.324257E-22
   776.3315  3.705947E-22
   776.5405  3.610290E-22
   776.7495  3.905915E-22
   777.2519  4.021815E-22
   777.5526  3.570127E-22
   777.8532  3.789866E-22
   778.1538  4.304227E-22
   778.4543  4.156123E-22
   778.7547  3.918346E-22
   779.0551  3.824172E-22
   779.3554  4.347717E-22
   779.6555  4.189543E-22
   779.9557  3.928232E-22
   780.2557  4.312932E-22
   780.5556  4.228238E-22
   780.8555  3.842431E-22
   781.1553  3.679849E-22
   781.4550  3.740584E-22
   781.7547  3.761094E-22
   782.0543  4.002080E-22
   782.3538  4.232517E-22
   782.6532  4.421603E-22
   782.9525  4.313448E-22
   783.2518  4.334769E-22
   783.5510  4.157488E-22
   783.8501  4.513896E-22
   784.1491  4.533409E-22
   784.4481  4.273241E-22
   784.7470  4.697374E-22
   785.0458  5.454602E-22
   785.3445  6.157606E-22
   785.6432  5.945797E-22
   785.9417  4.928143E-22
   786.2402  4.514670E-22
   786.5387  5.188311E-22
   786.8370  5.440585E-22
   787.1353  4.684205E-22
   787.4335  4.450855E-22
   787.7317  4.980818E-22
   788.0297  5.712262E-22
   788.3277  6.514825E-22
   788.6256  7.803234E-22
   788.9235  8.540506E-22
   789.2212  9.314186E-22
   789.5189  9.901879E-22
   789.8165  1.010764E-21
   790.1141  1.088180E-21
   790.4116  1.237423E-21
   790.7089  1.324035E-21
   791.0063  1.211012E-21
   791.3035  1.065531E-21
   791.6007  8.947745E-22
   791.8978  7.403889E-22
   792.1948  6.762119E-22
   792.4918  6.259821E-22
   792.7887  6.196522E-22
   793.0855  5.306130E-22
   793.3822  4.595196E-22
   793.6789  3.610711E-22
   793.9755  3.680948E-22
   794.2720  4.078991E-22
   794.5685  3.635197E-22
   794.8649  2.499185E-22
   795.1612  2.004806E-22
   795.4574  2.239895E-22
   795.7536  2.177337E-22
   796.0497  2.366109E-22
   796.3457  2.254395E-22
   796.6417  2.025810E-22
   796.9376  2.085347E-22
   797.2334  2.101349E-22
   797.5292  2.337344E-22
   797.8248  2.599006E-22
   798.1204  2.883030E-22
   798.4160  2.888504E-22
   798.7114  2.731470E-22
   799.0068  2.719850E-22
   799.3022  2.701668E-22
   799.5974  3.033309E-22
   799.8926  3.027426E-22
   800.1877  2.900072E-22
   800.4828  2.967624E-22
   800.7778  3.384487E-22
   801.0727  3.484891E-22
   801.3675  3.397611E-22
   801.6623  3.588320E-22
   801.9570  3.799863E-22
   802.2516  3.847558E-22
   802.5462  3.592687E-22
   802.8407  3.322250E-22
   803.1351  3.267055E-22
   803.4295  3.233779E-22
   803.7238  3.024298E-22
   804.0180  2.849015E-22
   804.3122  2.520882E-22
   804.6063  1.896958E-22
   804.9003  1.345069E-22
   805.1943  1.035058E-22
   805.4882  6.335883E-23
   805.7820  4.457126E-23
   806.0758  5.587324E-23
   806.3694  3.990867E-23
   806.6631  5.174736E-23
   806.9566  7.111482E-23
   807.2501  6.727150E-23
   807.5436  4.487705E-23
   807.8369  3.548153E-23
   808.1302  2.834917E-23
   808.4234  3.987510E-23
   808.7166  6.187522E-23
   809.0097  6.525633E-23
   809.3027  8.697057E-23
   809.5957  8.684700E-23
   809.8886  8.076608E-23
   810.1814  9.157451E-23
   810.4742  8.484732E-23
   810.7669  6.650756E-23
   811.0596  6.069186E-23
   811.3521  7.328860E-23
   811.6447  8.187345E-23
   811.9371  9.362841E-23
   812.2295  9.757501E-23
   812.5218  1.161494E-22
   812.8141  1.193409E-22
   813.1063  1.187083E-22
   813.3984  1.150335E-22
   813.6905  9.476713E-23
   813.9825  1.164463E-22
   814.2744  1.574447E-22
   814.5663  1.473308E-22
   814.8581  1.485946E-22
   815.1498  1.368440E-22
   815.4415  9.443071E-23
   815.7332  1.149668E-22
   816.0247  8.974415E-23
   816.3162  8.399596E-23
   816.6077  7.692940E-23
   816.8990  3.902447E-23
   817.1904  9.364870E-24
   817.4816  1.601419E-23
   817.7728  2.850624E-23
   818.0639  1.865951E-23
   818.3550  1.697732E-23
   818.6460  1.613887E-23
   818.9369 -2.477580E-24
   819.2278  6.535003E-24
   819.5186  2.647738E-23
   819.8094  3.609080E-23
   820.1001 -2.384490E-24
   820.3907 -9.442998E-24
   820.6813 -1.148181E-23
   820.9718  7.192229E-24
   821.2623  1.921238E-23
   821.5527 -8.908275E-24
   821.8430  2.130486E-24
   822.1333 -1.488248E-23
   822.4235 -1.968505E-23
   822.7137 -1.761293E-23
   823.0038  3.723358E-24
   823.2938  2.559976E-23
   823.5838  6.192170E-23
   823.8737  5.418084E-23
   824.1636  2.375018E-23
   824.4534  2.216807E-23
   824.7431  5.052196E-23
   825.0328  5.076210E-23
   825.3225  7.423846E-23
   825.6120  6.748471E-23
   825.9015  6.256133E-23
   826.1910  4.267929E-23
   826.4804  6.947074E-23
   826.7697  7.855283E-23
   827.0590  7.691539E-23
   827.3482  5.970623E-23
   827.6374  4.458564E-23
   827.9265  4.698112E-23
   828.2155  5.913078E-23
   828.5045  7.155931E-23
   828.7935  6.834935E-23
   829.0823  7.482939E-23
   829.3712  8.768730E-23
   829.6599  8.730662E-23
   829.9486  9.550820E-23
   830.2373  6.959468E-23
   830.5259  4.631493E-23
   830.8144  7.139000E-23
   831.1029  9.116690E-23
   831.3913  9.674025E-23
   831.6797  9.663106E-23
   831.9680  8.715058E-23
   832.2563  9.307915E-23
   832.5445  1.147097E-22
   832.8326  1.237740E-22
   833.1207  1.177182E-22
   833.4088  9.321601E-23
   833.6968  1.256513E-22
   833.9847  1.505275E-22
   834.2726  1.909725E-22
   834.5604  2.184689E-22
   834.8481  2.150774E-22
   835.1359  1.899658E-22
   835.4235  1.868861E-22
   835.7111  2.220990E-22
   835.9987  3.256110E-22
   836.2862  3.542804E-22
   836.5736  2.213376E-22
   836.8610  1.284127E-22
   837.1483  1.021173E-22
   837.4356  5.934436E-23
   837.7228  8.637447E-23
   838.0100  8.546593E-23
   838.2972  8.844607E-23
   838.5842  1.021450E-22
   838.8712  1.113304E-22
   839.1582  1.168296E-22
   839.4451  1.231908E-22
   839.7320  1.572189E-22
   840.0188  1.776583E-22
   840.3055  1.708289E-22
   840.5923  1.874863E-22
   840.8789  1.834865E-22
   841.1655  1.486304E-22
   841.4521  1.361133E-22
   841.7386  1.687942E-22
   842.0250  1.507241E-22
   842.3114  1.422831E-22
   842.5978  1.493050E-22
   842.8840  1.711181E-22
   843.1703  1.804097E-22
   843.4565  1.742008E-22
   843.7426  1.916295E-22
   844.0287  1.870270E-22
   844.3148  1.600626E-22
   844.6008  1.791154E-22
   844.8867  1.908460E-22
   845.1726  1.595329E-22
   845.4584  1.381189E-22
   845.7442  1.240732E-22
   846.0300  9.607664E-23
   846.3157  7.799435E-23
   846.6013  7.937505E-23
   846.8869  4.368780E-23
   847.1725  3.226726E-23
   847.4580  2.312176E-23
   847.7434  5.482969E-23
   848.0288  5.117081E-23
   848.3142  3.434122E-23
   848.5995  2.201978E-23
   848.8847  4.715375E-23
   849.1700  5.408493E-23
   849.4551  4.805012E-23
   849.7402  7.031804E-24
   850.0253  1.209352E-23
   850.3103  1.059415E-23
   850.5953  2.008978E-23
   850.8802  2.862214E-23
   851.1651  4.641121E-23
   851.4499  2.300003E-23
   851.7347  3.008193E-23
   852.0194  1.895800E-23
   852.3041  1.416748E-23
   852.5888  3.150914E-23
   852.8734  4.387113E-23
   853.1579  6.254104E-23
   853.4424  6.416594E-23
   853.7269  5.044708E-23
   854.0113  6.136174E-23
   854.2957  9.225840E-23
   854.5800  7.483493E-23
   854.8643  7.806407E-23
   855.1485  1.127506E-22
   855.4327  1.127767E-22
   855.7168  9.337057E-23
   856.0009  1.073635E-22
   856.2850  9.017389E-23
   856.5690  6.865442E-23
   856.8529  5.336931E-23
   857.1369  3.439693E-23
   857.4207  5.485846E-24
   857.7046  1.761385E-24
   857.9884 -4.357050E-24
   858.2721  9.647834E-24
   858.5558  5.380422E-24
   858.8394  2.880045E-23
   859.1231  1.750965E-23
   859.4066  1.042919E-24
   859.6901  2.490848E-23
   859.9736  4.521568E-23
   860.2571  1.786023E-23
   860.5405  4.726442E-23
   860.8238  1.789984E-23
   861.1071  1.679366E-23
   861.3904  5.484334E-23
   861.6736  3.577667E-23
   861.9568  1.482139E-23
   862.2399  3.806355E-23
   862.5230  1.457657E-23
   862.8061  2.373232E-23
   863.0891  2.194442E-23
   863.3721  3.647008E-23
   863.6550  2.138624E-23
   863.9379  1.564059E-23
   864.2207  3.489893E-24
   864.5036  1.461382E-23
   864.7863  3.152412E-23
   865.0690  1.993408E-23
   865.3517  1.898364E-23
   865.6344 -2.959590E-24
   865.9170  2.310973E-24
   866.1995  1.815603E-23
   866.4821  4.670483E-23
   866.7646  2.039499E-23
   867.0470  1.704907E-23
   867.3294  1.957059E-23
   867.6118 -1.567969E-23
   867.8941  2.115923E-24
   868.1764  3.653043E-23
   868.4586  5.739264E-23
   868.7408  4.399655E-23
   869.0230  1.254912E-23
   869.3051  2.177374E-23
   869.5872  3.505430E-23
   869.8693 -1.778652E-24
   870.1513  3.535287E-23
   870.4333  2.700259E-23
   870.7152 -2.885984E-24
   870.9971  1.928423E-23
   871.2790  2.163582E-24
   871.5608  1.190827E-23
   871.8426  5.742473E-24
   872.1243  4.676312E-24
   872.4060  5.201627E-24
   872.6877  9.294304E-25
   872.9693  3.557762E-23
   873.2509  3.810855E-23
   873.5325  3.861096E-23
   873.8140  5.938162E-23
   874.0955  4.337057E-23
   874.3770  2.236324E-23
   874.6584  1.774539E-23
   874.9398 -1.732458E-23
   875.2211  7.161132E-24
   875.5024  9.228939E-24
   875.7837  2.839956E-23
   876.0649  3.908497E-23
   876.3461  4.375678E-23
   876.6273  3.259950E-23
   876.9084  3.065088E-23
   877.1895  3.761979E-23
   877.4706  3.224280E-23
   877.7516  3.172047E-23
   878.0326  5.056549E-23
   878.3135  3.756003E-23
   878.5945  2.672438E-23
   878.8753  4.184674E-23
   879.1562  6.293610E-23
   879.4370  6.714498E-23
   879.7178  3.557032E-23
   879.9985  6.083388E-23
   880.2793  4.367747E-23
   880.5599  2.320841E-23
   880.8406  3.846341E-23
   881.1212  1.365678E-23
   881.4018  1.385553E-23
   881.6823  2.803555E-23
   881.9628  6.045763E-23
   882.2433  5.626351E-23
   882.5238  6.800741E-23
   882.8042  7.458557E-23
   883.0846  5.524504E-23
   883.3649  7.285222E-23
   883.6452  6.355028E-23
   883.9255  3.584082E-23
   884.2058  4.044317E-23
   884.4860  3.248069E-23
   884.7662  2.560068E-23
   885.0464  6.626226E-24
   885.3265  1.285768E-23
   885.6066  2.834710E-23
   885.8867  3.268066E-23
   886.1667  3.634123E-23
   886.4467  6.354585E-23
   886.7267  4.230304E-23
   887.0066  2.661177E-23
   887.2865  3.767291E-23
   887.5664  3.997617E-23
   887.8463  3.304824E-23
   888.1261  3.794846E-23
   888.4059  4.662257E-23
   888.6856  5.278538E-23
   888.9654  6.210134E-23
   889.2451  7.396586E-23
   889.5247  9.424628E-23
   889.8044  7.323401E-23
   890.0840  1.001538E-22
   890.3636  1.106358E-22
   890.6431  1.044782E-22
   890.9227  9.357566E-23
   891.2022  9.358931E-23
   891.4816  1.068113E-22
   891.7611  1.273695E-22
   892.0405  1.647252E-22
   892.3199  1.580430E-22
   892.5992  1.462091E-22
   892.8786  6.850354E-23
   893.1579  1.344250E-23
   893.4371  1.131630E-23
   893.7164  4.102931E-23
   893.9956  4.495968E-23
   894.2748  1.469096E-23
   894.5540  6.514567E-24
   894.8331  3.413713E-23
   895.1122  2.308893E-23
   895.3913  2.863276E-23
   895.6703  4.438313E-23
   895.9494  2.157215E-23
   896.2284  2.554228E-23
   896.5074  3.465875E-23
   896.7863  2.994699E-23
   897.0652  4.896235E-23
   897.3441  6.515489E-23
   897.6230  4.794868E-23
   897.9019  5.171859E-23
   898.1807  7.757051E-23
   898.4595  7.211963E-23
   898.7383  8.115008E-23
   899.0170  7.862771E-23
   899.2957  4.875062E-23
   899.5744  7.025017E-23
   899.8531  8.297602E-23
   900.1318  7.015389E-23
   900.4104  6.806532E-23
   900.6890  4.742414E-23
   900.9676  8.510222E-23
   901.2461  7.455643E-23
   901.5246  3.675124E-23
   901.8031  3.389020E-23
   902.0816  7.206172E-23
   902.3601  6.105557E-23
   902.6385  5.119221E-23
   902.9169  4.082754E-23
   903.1953  7.440002E-23
   903.4737  5.477620E-23
   903.7520  5.261164E-23
   904.0304  5.483965E-23
   904.3087  5.342538E-23
   904.5869  6.397080E-23
   904.8652  8.782710E-23
   905.1434  5.665968E-23
   905.4216  3.950770E-23
   905.6998  1.278793E-23
   905.9780  2.901909E-23
   906.2561  5.270607E-23
   906.5342  3.001999E-23
   906.8123  1.196216E-23
   907.0904  1.255351E-23
   907.3685  4.296738E-23
   907.6465  4.939984E-23
   907.9245  4.191756E-23
   908.2025  5.773864E-23
   908.4805  3.238921E-23
   908.7585  1.313592E-23
   909.0364  3.811445E-23
   909.3143  3.840218E-23
   909.5922  2.425904E-23
   909.8701  3.159554E-23
   910.1480  4.376084E-23
   910.4258  5.187942E-23
   910.7036  6.569640E-23
   910.9814  5.921341E-23
   911.2592  4.340192E-23
   911.5370  3.382410E-23
   911.8147  2.154872E-23
   912.0924  3.965193E-23
   912.3701  4.061359E-23
   912.6478  4.440563E-23
   912.9255  3.114639E-23
   913.2031  5.100740E-23
   913.4807  4.546689E-23
   913.7584  5.411776E-23
   914.0360  4.296185E-23
   914.3135  2.093108E-23
   914.5911  1.723067E-23
   914.8686 -8.975411E-24
   915.1462  1.970645E-23
   915.4237  3.525552E-23
   915.7012  5.342612E-23
   915.9786  3.393107E-23
   916.2561  6.204711E-23
   916.5335  7.557637E-23
   916.8110  5.530333E-23
   917.0884  2.543664E-23
   917.3658  2.390134E-23
   917.6431  1.719540E-23
   917.9205  6.504091E-24
   918.1978 -1.822652E-23
   918.4752  3.334522E-23
   918.7525  3.910157E-23
   919.0298  2.993430E-23
   919.3070  3.236752E-23
   919.5843  3.296329E-23
   919.8616  4.457900E-23
   920.1388  1.853191E-23
   920.4160 -1.109180E-25
   920.6932 -9.650933E-24
   920.9704  5.443979E-24
   921.2476 -1.518411E-23
   921.5248  2.726726E-24
   921.8019 -9.379883E-25
   922.0790  3.114543E-25
   922.3562  6.459199E-24
   922.6333  1.721075E-23
   922.9104 -8.477576E-25
   923.1874  1.637841E-23
   923.4645  1.371395E-23
   923.7416  3.826311E-23
   924.0186  7.450146E-24
   924.2956 -8.207928E-24
   924.5727 -1.304607E-23
   924.8497  2.560503E-23
   925.1266  3.518278E-23
   925.4036  2.406520E-23
   925.6806  1.548540E-23
   925.9575 -1.799217E-23
   926.2345 -7.967458E-24
   926.5114 -1.036939E-23
   926.7883  1.021583E-23
   927.0652  6.182210E-24
   927.3421 -3.286277E-24
   927.6190  3.138070E-23
   927.8959  1.103326E-23
   928.1728  1.738958E-23
   928.4496  4.787491E-23
   928.7264  4.226763E-23
   929.0033  1.777845E-23
   929.2801 -2.202103E-24
   929.5569  9.433481E-24
   929.8337  3.053922E-23
   930.1105  4.028160E-23
   1613.000  4.028160E-23
   2200.000  4.028160E-23
   2300.000  4.028160E-23
